time,orientation.x,orientation.y,orientation.z,orientation.w,orientation_covariance,angular_velocity.x,angular_velocity.y,angular_velocity.z,angular_velocity_covariance,linear_acceleration.x,linear_acceleration.y,linear_acceleration.z,linear_acceleration_covariance
0.019999980926513672,-0.002261242596432567,-0.0007256944081746043,0.523263692855835,-0.8521675467491151,[0. 0. 0. 0. 0. 0. 0. 0. 0.],0.07029250264167786,0.007551163900643588,-0.019498169422149658,[0. 0. 0. 0. 0. 0. 0. 0. 0.],0.14939060807228088,0.6370292305946351,9.854589462280273,[0. 0. 0. 0. 0. 0. 0. 0. 0.]
0.039999961853027344,-0.0027592875994741917,-0.00042327909613959497,0.5235064625740052,-0.8520171642303467,[0. 0. 0. 0. 0. 0. 0. 0. 0.],0.05716160312294961,0.005129725206643344,-0.03609806299209595,[0. 0. 0. 0. 0. 0. 0. 0. 0.],0.356090247631073,0.851681113243103,9.800889015197756,[0. 0. 0. 0. 0. 0. 0. 0. 0.]
0.059999942779541016,-0.0031780432909727097,-0.00013926607789471745,0.5238282680511475,-0.8518181443214418,[0. 0. 0. 0. 0. 0. 0. 0. 0.],0.05164668336510659,0.0036172568798065186,-0.044544044882059104,[0. 0. 0. 0. 0. 0. 0. 0. 0.],0.5712924599647523,0.5731531381607056,9.439041137695312,[0. 0. 0. 0. 0. 0. 0. 0. 0.]
0.07999992370605469,-0.003570854896679521,0.0001533323375042528,0.5242425799369813,-0.8515616655349731,[0. 0. 0. 0. 0. 0. 0. 0. 0.],0.044148415327072144,-0.0034511096309870486,-0.05356669798493386,[0. 0. 0. 0. 0. 0. 0. 0. 0.],0.47810700535774237,0.7661166787147523,9.844309806823732,[0. 0. 0. 0. 0. 0. 0. 0. 0.]
0.10000085830688477,-0.003896991023793817,0.00041969303856603807,0.524725079536438,-0.8512628674507142,[0. 0. 0. 0. 0. 0. 0. 0. 0.],0.040609389543533325,0.005664676893502475,-0.06054192781448364,[0. 0. 0. 0. 0. 0. 0. 0. 0.],0.33631742000579834,0.927632212638855,9.99942398071289,[0. 0. 0. 0. 0. 0. 0. 0. 0.]
0.12000083923339844,-0.004176405258476734,0.000600211787968874,0.5252972841262817,-0.8509082794189453,[0. 0. 0. 0. 0. 0. 0. 0. 0.],0.025179237127304077,0.010517982766032219,-0.07378458231687547,[0. 0. 0. 0. 0. 0. 0. 0. 0.],-0.244033619761467,0.837982177734375,10.002840042114258,[0. 0. 0. 0. 0. 0. 0. 0. 0.]
0.1400008201599121,-0.004374790471047164,0.000781815906520933,0.5259371995925903,-0.8505119681358339,[0. 0. 0. 0. 0. 0. 0. 0. 0.],0.019709020853042603,0.0007055700407363475,-0.08150041103363037,[0. 0. 0. 0. 0. 0. 0. 0. 0.],-0.44532954692840576,0.7893236279487611,9.889921188354492,[0. 0. 0. 0. 0. 0. 0. 0. 0.]
0.16000080108642578,-0.004513205029070377,0.0009207514813169837,0.5266573429107666,-0.8500652313232422,[0. 0. 0. 0. 0. 0. 0. 0. 0.],0.01733824610710144,-0.009323657490313055,-0.09041578322649003,[0. 0. 0. 0. 0. 0. 0. 0. 0.],-0.2504399120807648,0.7186527252197266,9.820363998413086,[0. 0. 0. 0. 0. 0. 0. 0. 0.]
0.18000102043151855,-0.004635978490114212,0.0010828458471223714,0.5274426937103271,-0.8495774269104004,[0. 0. 0. 0. 0. 0. 0. 0. 0.],0.021997839212417603,-0.017811359837651256,-0.09818078577518463,[0. 0. 0. 0. 0. 0. 0. 0. 0.],0.41377767920494085,0.6867811679840088,9.724180221557617,[0. 0. 0. 0. 0. 0. 0. 0. 0.]
0.20000171661376953,-0.004734229762107135,0.0012063917238265276,0.5282865762710571,-0.8490523695945741,[0. 0. 0. 0. 0. 0. 0. 0. 0.],0.013469904661178589,0.012915581464767456,-0.10410398989915849,[0. 0. 0. 0. 0. 0. 0. 0. 0.],0.42997515201568604,1.0605624914169314,9.570028305053711,[0. 0. 0. 0. 0. 0. 0. 0. 0.]
0.2200019359588623,-0.004758946131914855,0.0012517088325694206,0.5291788578033447,-0.8484961986541748,[0. 0. 0. 0. 0. 0. 0. 0. 0.],-0.005958975292742252,0.008933992125093939,-0.11147858202457428,[0. 0. 0. 0. 0. 0. 0. 0. 0.],-0.4455237686634064,1.0527034997940066,9.939270973205568,[0. 0. 0. 0. 0. 0. 0. 0. 0.]
0.24000191688537598,-0.004791657440364361,0.0013527428964152934,0.5301280617713929,-0.8479029536247255,[0. 0. 0. 0. 0. 0. 0. 0. 0.],0.0017754734726622703,-0.016757845878601074,-0.11558829247951508,[0. 0. 0. 0. 0. 0. 0. 0. 0.],-0.46030086278915405,0.3887236714363098,9.841960906982422,[0. 0. 0. 0. 0. 0. 0. 0. 0.]
0.26000189781188965,-0.004806485492736102,0.0013948003761470318,0.5311187505722046,-0.8472827076911927,[0. 0. 0. 0. 0. 0. 0. 0. 0.],0.010821971110999586,-0.02012104168534279,-0.12110920995473863,[0. 0. 0. 0. 0. 0. 0. 0. 0.],0.34635344147682195,0.9541339874267578,9.588723182678224,[0. 0. 0. 0. 0. 0. 0. 0. 0.]
0.2800018787384033,-0.004830305930227042,0.001445055939257145,0.5321518182754517,-0.8466339707374574,[0. 0. 0. 0. 0. 0. 0. 0. 0.],0.014852732419967651,0.007604807615280151,-0.1260742694139481,[0. 0. 0. 0. 0. 0. 0. 0. 0.],0.7199522256851196,1.0890103578567507,9.555408477783203,[0. 0. 0. 0. 0. 0. 0. 0. 0.]
0.300001859664917,-0.004813304170966148,0.001502401428297162,0.5332413315773011,-0.8459481596946717,[0. 0. 0. 0. 0. 0. 0. 0. 0.],-0.015178324654698372,0.010878593660891058,-0.1336410641670227,[0. 0. 0. 0. 0. 0. 0. 0. 0.],-0.9180247783660889,0.8273979425430298,9.775645256042482,[0. 0. 0. 0. 0. 0. 0. 0. 0.]
0.32000279426574707,-0.004867649637162685,0.0015947602223604918,0.5343623757362367,-0.8452400565147401,[0. 0. 0. 0. 0. 0. 0. 0. 0.],0.00964626669883728,-0.01597106643021107,-0.1377329379320145,[0. 0. 0. 0. 0. 0. 0. 0. 0.],0.27655166387557983,0.7339304089546205,10.16077518463135,[0. 0. 0. 0. 0. 0. 0. 0. 0.]
0.34000277519226074,-0.004960911348462105,0.0017023403197526932,0.5355352163314819,-0.8444966673851014,[0. 0. 0. 0. 0. 0. 0. 0. 0.],0.02831295691430569,0.004602223634719849,-0.14367552101612094,[0. 0. 0. 0. 0. 0. 0. 0. 0.],0.3045881092548371,1.2481791973114014,10.050689697265625,[0. 0. 0. 0. 0. 0. 0. 0. 0.]
0.3600027561187744,-0.004997452255338431,0.0017532699275761843,0.5367555618286133,-0.8437213897705078,[0. 0. 0. 0. 0. 0. 0. 0. 0.],0.0021062793675810103,-0.007221104111522437,-0.14614465832710266,[0. 0. 0. 0. 0. 0. 0. 0. 0.],-0.5158159732818604,0.6571100354194642,9.48200798034668,[0. 0. 0. 0. 0. 0. 0. 0. 0.]
0.3800027370452881,-0.005131766665726901,0.0019347964553162458,0.538000524044037,-0.8429269194602967,[0. 0. 0. 0. 0. 0. 0. 0. 0.],0.028578195720911026,-0.006443263497203589,-0.15102028846740723,[0. 0. 0. 0. 0. 0. 0. 0. 0.],0.6242742538452148,1.0452445745468142,9.625660896301271,[0. 0. 0. 0. 0. 0. 0. 0. 0.]
0.40000271797180176,-0.005206983536481857,0.0020577004179358482,0.5392966866493226,-0.842097282409668,[0. 0. 0. 0. 0. 0. 0. 0. 0.],-0.00454336404800415,0.004058331716805697,-0.16065688431262973,[0. 0. 0. 0. 0. 0. 0. 0. 0.],-0.27522313594818115,1.147615671157837,10.250245094299318,[0. 0. 0. 0. 0. 0. 0. 0. 0.]
0.42000293731689453,-0.005311870947480202,0.0022108834236860275,0.5406757593154907,-0.841211497783661,[0. 0. 0. 0. 0. 0. 0. 0. 0.],0.031103944405913356,-0.018106400966644287,-0.1681521683931351,[0. 0. 0. 0. 0. 0. 0. 0. 0.],0.5550010800361634,0.756216287612915,9.879886627197266,[0. 0. 0. 0. 0. 0. 0. 0. 0.]
0.4400038719177246,-0.005426420830190182,0.002374742412939668,0.5421258807182313,-0.8402765393257142,[0. 0. 0. 0. 0. 0. 0. 0. 0.],0.013593582436442375,-0.009450314566493034,-0.1779064387083054,[0. 0. 0. 0. 0. 0. 0. 0. 0.],0.09329962730407715,1.8166627883911133,10.248717308044435,[0. 0. 0. 0. 0. 0. 0. 0. 0.]
0.4600038528442383,-0.005507912486791611,0.0025655261706560854,0.5436984896659852,-0.8392589092254639,[0. 0. 0. 0. 0. 0. 0. 0. 0.],0.03833845630288125,-0.012403728440403938,-0.19202087819576266,[0. 0. 0. 0. 0. 0. 0. 0. 0.],0.17350000143051147,0.7480169534683228,9.35546875,[0. 0. 0. 0. 0. 0. 0. 0. 0.]
0.48000383377075195,-0.005575272720307113,0.0028504168149083857,0.5454092621803285,-0.8381467461586,[0. 0. 0. 0. 0. 0. 0. 0. 0.],0.023312121629714966,-0.02346337400376797,-0.20362888276577,[0. 0. 0. 0. 0. 0. 0. 0. 0.],0.4864403009414673,0.8286643028259277,9.54090976715088,[0. 0. 0. 0. 0. 0. 0. 0. 0.]
0.5000038146972656,-0.005628244951367378,0.003137365216389299,0.5472095608711244,-0.8369711041450502,[0. 0. 0. 0. 0. 0. 0. 0. 0.],0.029651073738932613,-0.0263705812394619,-0.2146348208189011,[0. 0. 0. 0. 0. 0. 0. 0. 0.],-0.0013990923762321472,1.1232343912124636,9.615838050842287,[0. 0. 0. 0. 0. 0. 0. 0. 0.]
0.5200037956237793,-0.005667553283274174,0.0034324247390031815,0.5491371750831605,-0.8357060551643373,[0. 0. 0. 0. 0. 0. 0. 0. 0.],0.014639644883573057,-0.023432074114680294,-0.23168471455574036,[0. 0. 0. 0. 0. 0. 0. 0. 0.],-0.1688487082719803,0.7891650199890137,9.825234413146974,[0. 0. 0. 0. 0. 0. 0. 0. 0.]
0.5400047302246094,-0.005694666877388954,0.0037796574179083113,0.5511789321899414,-0.8343592882156372,[0. 0. 0. 0. 0. 0. 0. 0. 0.],0.02397904172539711,-0.0283381249755621,-0.2407139241695404,[0. 0. 0. 0. 0. 0. 0. 0. 0.],-0.2661108374595642,1.106740951538086,10.084004402160646,[0. 0. 0. 0. 0. 0. 0. 0. 0.]
0.560004711151123,-0.005685897544026375,0.004184326156973839,0.5533519387245179,-0.8329175710678101,[0. 0. 0. 0. 0. 0. 0. 0. 0.],0.0108353802934289,-0.029818713665008545,-0.25867074728012085,[0. 0. 0. 0. 0. 0. 0. 0. 0.],-0.18439003825187683,0.621873140335083,9.910126686096193,[0. 0. 0. 0. 0. 0. 0. 0. 0.]
0.5800046920776367,-0.00571358809247613,0.004673680756241084,0.5556423068046571,-0.8313888311386108,[0. 0. 0. 0. 0. 0. 0. 0. 0.],0.012411922216415405,-0.039303306490182884,-0.27380287647247314,[0. 0. 0. 0. 0. 0. 0. 0. 0.],-0.24273896217346191,0.821425497531891,10.038493156433107,[0. 0. 0. 0. 0. 0. 0. 0. 0.]
0.6000046730041504,-0.005712624173611403,0.0051729786209762105,0.5580803751945497,-0.8297508955001831,[0. 0. 0. 0. 0. 0. 0. 0. 0.],0.013186785392463209,-0.05742014572024346,-0.2964586019515991,[0. 0. 0. 0. 0. 0. 0. 0. 0.],0.16014224290847778,0.9924334287643433,9.914748191833498,[0. 0. 0. 0. 0. 0. 0. 0. 0.]
0.6200046539306641,-0.0057576242834329605,0.005656379740685225,0.5606909394264222,-0.8279857635498047,[0. 0. 0. 0. 0. 0. 0. 0. 0.],0.0338234007358551,-0.057071458548307426,-0.3145858645439148,[0. 0. 0. 0. 0. 0. 0. 0. 0.],1.1395725011825564,1.2068390846252441,9.844587326049805,[0. 0. 0. 0. 0. 0. 0. 0. 0.]
0.6400046348571777,-0.005796374753117561,0.00618600519374013,0.5634581446647645,-0.8261013627052308,[0. 0. 0. 0. 0. 0. 0. 0. 0.],0.017815083265304565,-0.047414001077413566,-0.3366440832614899,[0. 0. 0. 0. 0. 0. 0. 0. 0.],0.6726099848747255,1.7273339033126833,10.110053062438967,[0. 0. 0. 0. 0. 0. 0. 0. 0.]
0.6600058078765869,-0.005815815646201373,0.006782312411814929,0.5663772821426392,-0.8240982294082642,[0. 0. 0. 0. 0. 0. 0. 0. 0.],0.020553922280669216,-0.032243140041828156,-0.35379388928413397,[0. 0. 0. 0. 0. 0. 0. 0. 0.],0.03638515248894692,1.4435416460037234,9.360404014587404,[0. 0. 0. 0. 0. 0. 0. 0. 0.]
0.6800057888031006,-0.005768607836216689,0.007459257263690234,0.5694479346275331,-0.8219735026359559,[0. 0. 0. 0. 0. 0. 0. 0. 0.],0.019999595358967785,-0.07184297591447832,-0.3752201795578003,[0. 0. 0. 0. 0. 0. 0. 0. 0.],0.8228311538696289,1.0237531661987305,9.994593620300295,[0. 0. 0. 0. 0. 0. 0. 0. 0.]
0.7000057697296143,-0.005770957563072444,0.00809148419648409,0.5726552605628968,-0.8197359442710878,[0. 0. 0. 0. 0. 0. 0. 0. 0.],0.03764703869819641,-0.04109591618180276,-0.39236992597579956,[0. 0. 0. 0. 0. 0. 0. 0. 0.],1.4383833408355713,1.6932858228683474,9.465076446533203,[0. 0. 0. 0. 0. 0. 0. 0. 0.]
0.7200057506561279,-0.00568184070289135,0.00861680693924427,0.5762059688568115,-0.8172392845153809,[0. 0. 0. 0. 0. 0. 0. 0. 0.],0.006834418047219516,-0.046668946743011475,-0.40395259857177734,[0. 0. 0. 0. 0. 0. 0. 0. 0.],0.062329381704330444,1.586867332458496,10.318411827087404,[0. 0. 0. 0. 0. 0. 0. 0. 0.]
0.7400057315826416,-0.005558382254093886,0.009173608385026457,0.5798668265342714,-0.8146407604217529,[0. 0. 0. 0. 0. 0. 0. 0. 0.],0.03162697330117226,-0.05515367537736893,-0.419011801481247,[0. 0. 0. 0. 0. 0. 0. 0. 0.],0.1918945759534836,0.6394540667533876,9.115309715270998,[0. 0. 0. 0. 0. 0. 0. 0. 0.]
0.7600057125091553,-0.005379696376621723,0.009704519994556906,0.5836105942726136,-0.8119580149650575,[0. 0. 0. 0. 0. 0. 0. 0. 0.],0.014895947650074959,-0.05533993989229202,-0.4296333491802216,[0. 0. 0. 0. 0. 0. 0. 0. 0.],0.5162245631217958,1.4209003448486328,9.997887611389162,[0. 0. 0. 0. 0. 0. 0. 0. 0.]
0.7800066471099854,-0.005129015073180199,0.010184930637478828,0.5874079465866089,-0.8092109560966493,[0. 0. 0. 0. 0. 0. 0. 0. 0.],0.004243106115609408,-0.04989505559206009,-0.4348457753658295,[0. 0. 0. 0. 0. 0. 0. 0. 0.],0.2552596926689148,0.8305745124816895,9.409244537353516,[0. 0. 0. 0. 0. 0. 0. 0. 0.]
0.800006628036499,-0.004859696608036757,0.010626634582877159,0.5912659168243408,-0.8063924908638002,[0. 0. 0. 0. 0. 0. 0. 0. 0.],0.003971905447542667,-0.06993117183446886,-0.4455567300319672,[0. 0. 0. 0. 0. 0. 0. 0. 0.],0.9790928959846498,0.9736542701721191,10.30851459503174,[0. 0. 0. 0. 0. 0. 0. 0. 0.]
0.8200066089630127,-0.00454820552840829,0.010944247245788574,0.5951555371284486,-0.8035235404968262,[0. 0. 0. 0. 0. 0. 0. 0. 0.],0.006606430746614933,-0.03998727723956109,-0.45259153842926025,[0. 0. 0. 0. 0. 0. 0. 0. 0.],1.5856372117996218,1.3302276134490967,9.427295684814453,[0. 0. 0. 0. 0. 0. 0. 0. 0.]
0.8400065898895264,-0.004170771688222885,0.011212824843823911,0.5990547537803651,-0.8006191849708558,[0. 0. 0. 0. 0. 0. 0. 0. 0.],-0.03788025304675103,-0.04479737207293511,-0.4508048892021179,[0. 0. 0. 0. 0. 0. 0. 0. 0.],-0.09348300844430925,1.3470975160598757,10.376543998718263,[0. 0. 0. 0. 0. 0. 0. 0. 0.]
0.8600077629089355,-0.0038169242907315497,0.011501624248921873,0.6029713153839111,-0.7976712584495546,[0. 0. 0. 0. 0. 0. 0. 0. 0.],-0.007352273911237717,-0.04333462193608285,-0.4559675455093384,[0. 0. 0. 0. 0. 0. 0. 0. 0.],0.3958191573619843,0.8668962717056274,9.230732917785646,[0. 0. 0. 0. 0. 0. 0. 0. 0.]
0.8800077438354492,-0.003378645982593298,0.011723682284355164,0.6069402694702148,-0.7946537733078003,[0. 0. 0. 0. 0. 0. 0. 0. 0.],-0.021222239360213283,-0.056050725281238556,-0.46489691734313965,[0. 0. 0. 0. 0. 0. 0. 0. 0.],0.40663024783134466,0.8029770255088807,10.1161584854126,[0. 0. 0. 0. 0. 0. 0. 0. 0.]
0.9000077247619629,-0.0029193798545748,0.011815719306468964,0.6109324097633363,-0.7915892004966737,[0. 0. 0. 0. 0. 0. 0. 0. 0.],-0.024053459987044338,-0.03592074662446976,-0.46744504570961004,[0. 0. 0. 0. 0. 0. 0. 0. 0.],0.756796419620514,0.661900818347931,9.498710632324219,[0. 0. 0. 0. 0. 0. 0. 0. 0.]
0.9200077056884766,-0.002360963262617588,0.011886890046298506,0.6149513125419618,-0.7884718775749208,[0. 0. 0. 0. 0. 0. 0. 0. 0.],-0.04296004772186279,-0.06098449230194092,-0.4769414961338044,[0. 0. 0. 0. 0. 0. 0. 0. 0.],1.2301239967346191,-0.006295723840594292,9.666374206542969,[0. 0. 0. 0. 0. 0. 0. 0. 0.]
0.9400076866149902,-0.0017711420077830553,0.011797037906944753,0.6190410256385804,-0.7852683067321777,[0. 0. 0. 0. 0. 0. 0. 0. 0.],-0.05857497826218606,-0.014185905456542969,-0.4900291860103608,[0. 0. 0. 0. 0. 0. 0. 0. 0.],0.8879877328872681,0.836901068687439,9.356566429138185,[0. 0. 0. 0. 0. 0. 0. 0. 0.]
0.959998607635498,-0.0010092607699334621,0.011597463861107826,0.6231040954589844,-0.7820524573326112,[0. 0. 0. 0. 0. 0. 0. 0. 0.],-0.1051291972398758,-0.04284979030489922,-0.510136902332306,[0. 0. 0. 0. 0. 0. 0. 0. 0.],0.8289870619773866,0.05312308669090271,10.266324996948242,[0. 0. 0. 0. 0. 0. 0. 0. 0.]
0.9799995422363281,-0.00020605174358934164,0.011312546208500862,0.6278074383735658,-0.7782869935035707,[0. 0. 0. 0. 0. 0. 0. 0. 0.],-0.07627309858798981,-0.02107471786439419,-0.5260796546936035,[0. 0. 0. 0. 0. 0. 0. 0. 0.],1.1324712038040163,-0.0002608087961561978,9.17707633972168,[0. 0. 0. 0. 0. 0. 0. 0. 0.]
0.9999995231628418,0.0007954731700010599,0.010849932208657265,0.6326586604118348,-0.7743545174598695,[0. 0. 0. 0. 0. 0. 0. 0. 0.],-0.10653289407491685,-0.03955067321658135,-0.5477741956710815,[0. 0. 0. 0. 0. 0. 0. 0. 0.],1.8778266906738281,0.5849164724349976,9.728902816772461,[0. 0. 0. 0. 0. 0. 0. 0. 0.]
1.0199995040893555,0.001888267695903778,0.010265842080116272,0.6376398801803589,-0.770263969898224,[0. 0. 0. 0. 0. 0. 0. 0. 0.],-0.13817250728607178,-0.0080868611112237,-0.565725564956665,[0. 0. 0. 0. 0. 0. 0. 0. 0.],0.43104407191276556,0.7005941867828369,9.35537338256836,[0. 0. 0. 0. 0. 0. 0. 0. 0.]
1.0399994850158691,0.003089121077209711,0.009650155901908875,0.6427136659622192,-0.7660394906997681,[0. 0. 0. 0. 0. 0. 0. 0. 0.],-0.14616701006889343,-0.04023463651537896,-0.5790845751762391,[0. 0. 0. 0. 0. 0. 0. 0. 0.],0.8920399546623231,-0.3451356291770935,10.188435554504396,[0. 0. 0. 0. 0. 0. 0. 0. 0.]
1.0599994659423828,0.004213811364024878,0.00901355314999819,0.6478845477104188,-0.7616740465164185,[0. 0. 0. 0. 0. 0. 0. 0. 0.],-0.13685528934001925,-0.018481913954019547,-0.5987854599952699,[0. 0. 0. 0. 0. 0. 0. 0. 0.],1.4382591247558594,0.28468468785285955,9.739310264587404,[0. 0. 0. 0. 0. 0. 0. 0. 0.]
1.0799996852874756,0.005420067347586155,0.008221859112381935,0.6531402468681337,-0.7571729421615601,[0. 0. 0. 0. 0. 0. 0. 0. 0.],-0.15816991031169894,-0.006288291420787574,-0.6111249923706055,[0. 0. 0. 0. 0. 0. 0. 0. 0.],1.7362753152847292,-0.8315615653991699,9.733464241027834,[0. 0. 0. 0. 0. 0. 0. 0. 0.]
1.1000006198883057,0.0065326238982379445,0.00746042188256979,0.658493161201477,-0.7525216937065126,[0. 0. 0. 0. 0. 0. 0. 0. 0.],-0.13172626495361328,0.01432523410767317,-0.6301865577697754,[0. 0. 0. 0. 0. 0. 0. 0. 0.],-0.24413147568702698,-0.5437088012695312,9.603456497192383,[0. 0. 0. 0. 0. 0. 0. 0. 0.]
1.1200006008148193,0.007701392285525799,0.0067109838128089905,0.6639538407325746,-0.7477040886878968,[0. 0. 0. 0. 0. 0. 0. 0. 0.],-0.1455485969781876,-0.03422051668167114,-0.6492451429367065,[0. 0. 0. 0. 0. 0. 0. 0. 0.],1.7386945486068728,-0.9147117137908936,9.440417289733888,[0. 0. 0. 0. 0. 0. 0. 0. 0.]
1.140000581741333,0.008783764205873014,0.005893068853765727,0.6695263981819154,-0.7427132725715638,[0. 0. 0. 0. 0. 0. 0. 0. 0.],-0.15054795145988464,-0.003607571823522449,-0.6705076694488525,[0. 0. 0. 0. 0. 0. 0. 0. 0.],0.13380730152130127,-0.20743194222450256,10.117571830749513,[0. 0. 0. 0. 0. 0. 0. 0. 0.]
1.1600005626678467,0.00993961375206709,0.005131376441568137,0.6751998662948608,-0.7375503182411195,[0. 0. 0. 0. 0. 0. 0. 0. 0.],-0.13737085461616516,-0.049568720161914825,-0.6858126521110536,[0. 0. 0. 0. 0. 0. 0. 0. 0.],1.3289726972579958,-1.058835744857788,10.013982772827148,[0. 0. 0. 0. 0. 0. 0. 0. 0.]
1.1800005435943604,0.011032124981284142,0.004327671136707068,0.6809522509574891,-0.7322322726249696,[0. 0. 0. 0. 0. 0. 0. 0. 0.],-0.1365393549203873,0.012589246034622192,-0.7030860781669618,[0. 0. 0. 0. 0. 0. 0. 0. 0.],0.7852029204368592,0.28392997384071356,9.990241050720217,[0. 0. 0. 0. 0. 0. 0. 0. 0.]
1.2000014781951904,0.012150623835623266,0.003583654528483749,0.6867542266845703,-0.7267794609069824,[0. 0. 0. 0. 0. 0. 0. 0. 0.],-0.15823845565319064,-0.008979441598057747,-0.7140339612960815,[0. 0. 0. 0. 0. 0. 0. 0. 0.],1.0938740968704226,-1.040621876716614,10.164969444274904,[0. 0. 0. 0. 0. 0. 0. 0. 0.]
1.220001459121704,0.01316113490611315,0.0029370225965976715,0.693265438079834,-0.7205564975738525,[0. 0. 0. 0. 0. 0. 0. 0. 0.],-0.13859872519969943,0.00121518992818892,-0.7308707833290101,[0. 0. 0. 0. 0. 0. 0. 0. 0.],0.024801539257168773,-0.9864137768745423,9.565394401550295,[0. 0. 0. 0. 0. 0. 0. 0. 0.]
1.2400014400482178,0.014091117307543755,0.002281461376696825,0.6994857192039491,-0.7145043015480043,[0. 0. 0. 0. 0. 0. 0. 0. 0.],-0.11610986292362213,-0.04793704301118851,-0.7352725863456727,[0. 0. 0. 0. 0. 0. 0. 0. 0.],0.88424950838089,-1.013909697532654,10.144429206848146,[0. 0. 0. 0. 0. 0. 0. 0. 0.]
1.2600014209747314,0.014824966900050642,0.0017498367233201864,0.7057361006736756,-0.7083179950714111,[0. 0. 0. 0. 0. 0. 0. 0. 0.],-0.08909554779529572,-0.007298590149730445,-0.749510645866394,[0. 0. 0. 0. 0. 0. 0. 0. 0.],2.117970228195191,-1.374420762062073,9.176005363464357,[0. 0. 0. 0. 0. 0. 0. 0. 0.]
1.2800014019012451,0.015388194471597672,0.0012357437517493963,0.7120018005371094,-0.7020085453987123,[0. 0. 0. 0. 0. 0. 0. 0. 0.],-0.07873477041721344,-0.005422533955425025,-0.7586705088615419,[0. 0. 0. 0. 0. 0. 0. 0. 0.],0.23935642838478088,-0.34588372707366943,10.347223281860352,[0. 0. 0. 0. 0. 0. 0. 0. 0.]
1.3000013828277588,0.01573642157018185,0.0008830325677990913,0.7182614207267762,-0.6955954432487489,[0. 0. 0. 0. 0. 0. 0. 0. 0.],-0.05794466286897659,-0.01489073131233454,-0.7629082202911377,[0. 0. 0. 0. 0. 0. 0. 0. 0.],1.080672860145569,-1.0786190032958984,9.861964225769045,[0. 0. 0. 0. 0. 0. 0. 0. 0.]
1.320002555847168,0.015872538089752197,0.0006362435524351896,0.7244744300842285,-0.6891192793846131,[0. 0. 0. 0. 0. 0. 0. 0. 0.],-0.0338137149810791,0.023887310177087784,-0.7653594613075257,[0. 0. 0. 0. 0. 0. 0. 0. 0.],1.1610575914382937,-0.9497700333595277,9.976423263549805,[0. 0. 0. 0. 0. 0. 0. 0. 0.]
1.3400025367736816,0.015793923288583755,0.0003680872323457152,0.7306307554244995,-0.6825907826423646,[0. 0. 0. 0. 0. 0. 0. 0. 0.],-0.03227145597338677,0.032780326902866364,-0.7604376673698426,[0. 0. 0. 0. 0. 0. 0. 0. 0.],1.6302809715270996,-1.0133622884750368,9.588603019714357,[0. 0. 0. 0. 0. 0. 0. 0. 0.]
1.3600025177001953,0.01560682896524668,0.0001665377349127084,0.736697793006897,-0.6760427355766297,[0. 0. 0. 0. 0. 0. 0. 0. 0.],-0.04370362684130669,0.04149005562067032,-0.7549495697021484,[0. 0. 0. 0. 0. 0. 0. 0. 0.],0.3336088359355927,-0.8622793555259706,10.038291931152344,[0. 0. 0. 0. 0. 0. 0. 0. 0.]
1.380002498626709,0.015254497528076172,-9.209728159476072e-05,0.7426742911338807,-0.6694796085357666,[0. 0. 0. 0. 0. 0. 0. 0. 0.],-0.007608534302562476,0.047867752611637115,-0.7541241049766542,[0. 0. 0. 0. 0. 0. 0. 0. 0.],1.21463942527771,-0.5773321986198426,10.174742698669435,[0. 0. 0. 0. 0. 0. 0. 0. 0.]
1.4000024795532227,0.014872117899358274,-0.00032315761200152343,0.7485942840576172,-0.6628619432449341,[0. 0. 0. 0. 0. 0. 0. 0. 0.],-0.0052139172330498695,0.028290603309869766,-0.76055246591568,[0. 0. 0. 0. 0. 0. 0. 0. 0.],2.204202651977539,-1.2966004610061648,9.303947448730469,[0. 0. 0. 0. 0. 0. 0. 0. 0.]
1.4200024604797363,0.01452611666172743,-0.0006631682044826449,0.754435658454895,-0.6562134027481079,[0. 0. 0. 0. 0. 0. 0. 0. 0.],-0.001960993511602283,0.039074577391147614,-0.748333513736725,[0. 0. 0. 0. 0. 0. 0. 0. 0.],1.6949388980865479,-1.0490876436233523,9.164113044738771,[0. 0. 0. 0. 0. 0. 0. 0. 0.]
1.4400033950805664,0.014281171374022962,-0.0010800845921039581,0.7602188587188721,-0.6495096683502197,[0. 0. 0. 0. 0. 0. 0. 0. 0.],-0.005219877697527409,0.05536453053355218,-0.7503898739814759,[0. 0. 0. 0. 0. 0. 0. 0. 0.],1.2999684810638428,-1.5450596809387207,8.619062423706055,[0. 0. 0. 0. 0. 0. 0. 0. 0.]
1.46000337600708,0.014094285666942596,-0.0015481750015169382,0.7658221125602723,-0.6428968310356141,[0. 0. 0. 0. 0. 0. 0. 0. 0.],-0.055499374866485596,0.09029582887887956,-0.7605046033859253,[0. 0. 0. 0. 0. 0. 0. 0. 0.],1.0473666191101074,-0.049389131367206573,10.162391662597656,[0. 0. 0. 0. 0. 0. 0. 0. 0.]
1.4800033569335938,0.014034277759492399,-0.0022668603342026476,0.7712655067443848,-0.6363557577133179,[0. 0. 0. 0. 0. 0. 0. 0. 0.],-0.046835843473672874,0.05251989886164666,-0.764724612236023,[0. 0. 0. 0. 0. 0. 0. 0. 0.],0.08301427960395813,-1.7874230146408083,9.881107330322266,[0. 0. 0. 0. 0. 0. 0. 0. 0.]
1.5000033378601074,0.014059225097298622,-0.002952275797724724,0.7767269015312196,-0.629673957824707,[0. 0. 0. 0. 0. 0. 0. 0. 0.],-0.07041247934103013,0.05240664631128311,-0.7834927439689637,[0. 0. 0. 0. 0. 0. 0. 0. 0.],1.167396664619446,-1.5369865894317627,9.850193977355959,[0. 0. 0. 0. 0. 0. 0. 0. 0.]
1.520003318786621,0.014161858707666397,-0.003779876511543989,0.7822221517562866,-0.6228276491165161,[0. 0. 0. 0. 0. 0. 0. 0. 0.],-0.06272496283054352,0.047747056931257255,-0.7935227751731874,[0. 0. 0. 0. 0. 0. 0. 0. 0.],0.3710063993930817,-0.13972219824790955,10.077690124511719,[0. 0. 0. 0. 0. 0. 0. 0. 0.]
1.5400044918060303,0.014397139661014082,-0.00455891015008092,0.7877572774887085,-0.6158012747764589,[0. 0. 0. 0. 0. 0. 0. 0. 0.],-0.09737144410610199,0.02912087179720402,-0.8185436725616455,[0. 0. 0. 0. 0. 0. 0. 0. 0.],1.6872669458389284,-1.7258825302124023,9.44676399230957,[0. 0. 0. 0. 0. 0. 0. 0. 0.]
1.560004472732544,0.01462167501449585,-0.005231255665421486,0.7933410406112671,-0.6085797548294067,[0. 0. 0. 0. 0. 0. 0. 0. 0.],-0.09686054289340973,0.015259535983204842,-0.8321837782859803,[0. 0. 0. 0. 0. 0. 0. 0. 0.],-0.8321890830993652,-0.34605726599693304,10.344176292419435,[0. 0. 0. 0. 0. 0. 0. 0. 0.]
1.5800044536590576,0.01489771157503128,-0.005900648422539234,0.7989808917045594,-0.601143777370453,[0. 0. 0. 0. 0. 0. 0. 0. 0.],-0.08247049897909166,0.03080591931939125,-0.8552865386009217,[0. 0. 0. 0. 0. 0. 0. 0. 0.],0.6264149546623231,-1.2979327440261843,10.098953247070312,[0. 0. 0. 0. 0. 0. 0. 0. 0.]
1.6000044345855713,0.0152014521881938,-0.006322250235825778,0.8046571612358094,-0.5935117602348329,[0. 0. 0. 0. 0. 0. 0. 0. 0.],-0.07221104949712755,0.027246031910181046,-0.8749680519104004,[0. 0. 0. 0. 0. 0. 0. 0. 0.],0.007781537715345622,0.37740516662597656,10.468171119689943,[0. 0. 0. 0. 0. 0. 0. 0. 0.]
1.620004415512085,0.015423979610204697,-0.006708892993628979,0.8104109764099121,-0.5856210589408876,[0. 0. 0. 0. 0. 0. 0. 0. 0.],-0.051517795771360404,0.047671057283878326,-0.8995402455329896,[0. 0. 0. 0. 0. 0. 0. 0. 0.],1.142503261566162,-0.9090213775634766,10.151738166809084,[0. 0. 0. 0. 0. 0. 0. 0. 0.]
1.6400043964385986,0.015613890253007414,-0.0068395701237022885,0.8162477612495423,-0.5774509906768799,[0. 0. 0. 0. 0. 0. 0. 0. 0.],-0.052410371601581573,-0.00893324799835682,-0.9309025406837464,[0. 0. 0. 0. 0. 0. 0. 0. 0.],-0.19497387111186984,-0.963670313358307,9.845873832702638,[0. 0. 0. 0. 0. 0. 0. 0. 0.]
1.6600053310394287,0.015633102506399155,-0.006829972844570876,0.8221623301506044,-0.5689975023269653,[0. 0. 0. 0. 0. 0. 0. 0. 0.],0.0219442043453455,0.0025339433923363686,-0.9619552493095399,[0. 0. 0. 0. 0. 0. 0. 0. 0.],1.9179635047912598,-1.4721108675003054,9.523795127868654,[0. 0. 0. 0. 0. 0. 0. 0. 0.]
1.6800053119659424,0.015568554401397705,-0.006705782841891051,0.8281524777412416,-0.5602471828460693,[0. 0. 0. 0. 0. 0. 0. 0. 0.],-0.022698944434523586,-0.011265279725193977,-0.9868221282958984,[0. 0. 0. 0. 0. 0. 0. 0. 0.],0.517241358757019,0.07257547229528429,10.285079956054688,[0. 0. 0. 0. 0. 0. 0. 0. 0.]
1.700005292892456,0.015411312691867353,-0.006358451675623656,0.8341768383979798,-0.5512453317642212,[0. 0. 0. 0. 0. 0. 0. 0. 0.],0.034395616501569755,0.013881180435419083,-1.0039168596267702,[0. 0. 0. 0. 0. 0. 0. 0. 0.],1.1041511297225954,-0.5037236809730531,9.459219932556154,[0. 0. 0. 0. 0. 0. 0. 0. 0.]
1.7200052738189697,0.015212348662316801,-0.005962836090475322,0.8398849368095399,-0.5425196290016175,[0. 0. 0. 0. 0. 0. 0. 0. 0.],0.041074316948652274,-0.008332732133567335,-1.024472951889038,[0. 0. 0. 0. 0. 0. 0. 0. 0.],-0.1737954318523407,-0.22868825495243075,10.177258491516115,[0. 0. 0. 0. 0. 0. 0. 0. 0.]
1.7400052547454834,0.014904264360666275,-0.005367104895412922,0.845587968826294,-0.5336015820503236,[0. 0. 0. 0. 0. 0. 0. 0. 0.],0.086220383644104,0.030883414670825008,-1.0406348705291748,[0. 0. 0. 0. 0. 0. 0. 0. 0.],2.180360794067383,-0.8458167314529419,9.185260772705078,[0. 0. 0. 0. 0. 0. 0. 0. 0.]
1.760005235671997,0.01456553116440773,-0.004760679788887501,0.8512957692146302,-0.5244629979133607,[0. 0. 0. 0. 0. 0. 0. 0. 0.],0.04092977568507195,0.037277497351169586,-1.0650041103363037,[0. 0. 0. 0. 0. 0. 0. 0. 0.],-0.1714593768119812,0.7801443934440614,10.858129501342773,[0. 0. 0. 0. 0. 0. 0. 0. 0.]
1.7800064086914062,0.014156627468764784,-0.004177852999418975,0.8569796085357666,-0.5151393413543701,[0. 0. 0. 0. 0. 0. 0. 0. 0.],0.0795401781797409,0.033054511994123466,-1.0707306861877441,[0. 0. 0. 0. 0. 0. 0. 0. 0.],1.7060813903808594,-1.2531993389129639,9.185179710388185,[0. 0. 0. 0. 0. 0. 0. 0. 0.]
1.80000638961792,0.013770169578492643,-0.0034679903183132414,0.8626284003257753,-0.5056396722793579,[0. 0. 0. 0. 0. 0. 0. 0. 0.],0.07629173994064331,0.010349605232477188,-1.082933306694031,[0. 0. 0. 0. 0. 0. 0. 0. 0.],-0.7468326091766357,0.08579172194004059,10.768020629882812,[0. 0. 0. 0. 0. 0. 0. 0. 0.]
1.8200063705444336,0.013327472843229772,-0.0027758972719311714,0.8682204484939575,-0.49599283933639526,[0. 0. 0. 0. 0. 0. 0. 0. 0.],0.09133744239807129,0.014095759950578214,-1.097813606262207,[0. 0. 0. 0. 0. 0. 0. 0. 0.],2.830761432647705,-0.9267980456352235,9.140493392944336,[0. 0. 0. 0. 0. 0. 0. 0. 0.]
1.8400063514709473,0.012935905717313291,-0.002173938322812319,0.8737547993659974,-0.4861899912357331,[0. 0. 0. 0. 0. 0. 0. 0. 0.],0.04469231516122818,-0.004985929932445289,-1.1054280996322634,[0. 0. 0. 0. 0. 0. 0. 0. 0.],0.45585906505584717,0.4703800082206726,10.511865615844727,[0. 0. 0. 0. 0. 0. 0. 0. 0.]
1.8600072860717773,0.012617330066859724,-0.0015639598714187743,0.8792039155960083,-0.47627681493759155,[0. 0. 0. 0. 0. 0. 0. 0. 0.],0.046713605523109436,-0.0022849247325211768,-1.1129193305969238,[0. 0. 0. 0. 0. 0. 0. 0. 0.],2.3511219024658203,-0.5902153849601747,9.420617103576662,[0. 0. 0. 0. 0. 0. 0. 0. 0.]
1.880007266998291,0.012323478236794472,-0.001110137440264225,0.8845868110656738,-0.46621185541152954,[0. 0. 0. 0. 0. 0. 0. 0. 0.],0.04062579944729806,0.010714684613049032,-1.119616985321045,[0. 0. 0. 0. 0. 0. 0. 0. 0.],-1.08616042137146,0.31806972622871404,10.15444850921631,[0. 0. 0. 0. 0. 0. 0. 0. 0.]
1.9000072479248047,0.01211869064718485,-0.000639013247564435,0.8898682594299316,-0.45605719089508057,[0. 0. 0. 0. 0. 0. 0. 0. 0.],0.031005598604679108,-0.008095803670585157,-1.1236238479614258,[0. 0. 0. 0. 0. 0. 0. 0. 0.],2.203597784042359,-0.9949207305908203,9.394964218139648,[0. 0. 0. 0. 0. 0. 0. 0. 0.]
1.9200072288513184,0.011925848200917244,-0.00026111680199392145,0.8950479030609131,-0.44581156969070435,[0. 0. 0. 0. 0. 0. 0. 0. 0.],0.04739539325237274,0.0189609881490469,-1.1277784109115603,[0. 0. 0. 0. 0. 0. 0. 0. 0.],-0.36491033434867864,-0.08865098655223846,10.030189514160156,[0. 0. 0. 0. 0. 0. 0. 0. 0.]
1.9400074481964111,0.011762174777686598,6.800736446166412e-05,0.9001426696777344,-0.4354358613491059,[0. 0. 0. 0. 0. 0. 0. 0. 0.],0.007931144908070564,-0.020538279786705974,-1.1324334144592285,[0. 0. 0. 0. 0. 0. 0. 0. 0.],2.2183804512023926,-0.4482644200325012,9.757247924804688,[0. 0. 0. 0. 0. 0. 0. 0. 0.]
1.959998369216919,0.011669861152768135,0.0002971781650558114,0.9049994349479676,-0.4252530336380005,[0. 0. 0. 0. 0. 0. 0. 0. 0.],0.01895503140985966,0.00756159843876958,-1.1378815174102783,[0. 0. 0. 0. 0. 0. 0. 0. 0.],0.08543546497821808,-0.1278893202543259,9.936530113220217,[0. 0. 0. 0. 0. 0. 0. 0. 0.]
1.979999303817749,0.01158813014626503,0.0005215263227000833,0.9096311330795288,-0.41525563597679144,[0. 0. 0. 0. 0. 0. 0. 0. 0.],0.00017508871678728613,-0.013871494680643082,-1.151034712791443,[0. 0. 0. 0. 0. 0. 0. 0. 0.],2.4931595325469975,-0.17473605275154114,9.737930297851562,[0. 0. 0. 0. 0. 0. 0. 0. 0.]
1.9999992847442627,0.011498462408781052,0.0006356915109790863,0.914169728755951,-0.4051687419414521,[0. 0. 0. 0. 0. 0. 0. 0. 0.],0.0023372478317469363,0.041001297533512115,-1.1476414203643799,[0. 0. 0. 0. 0. 0. 0. 0. 0.],0.3583153486251831,0.2599891126155854,10.221183776855469,[0. 0. 0. 0. 0. 0. 0. 0. 0.]
2.0199992656707764,0.011546497233211996,0.0007258227560669184,0.9185979962348939,-0.39502376317977905,[0. 0. 0. 0. 0. 0. 0. 0. 0.],-0.027658050879836086,-0.014211241155862808,-1.1524113416671755,[0. 0. 0. 0. 0. 0. 0. 0. 0.],0.333065927028656,-0.3770472705364228,9.54040050506592,[0. 0. 0. 0. 0. 0. 0. 0. 0.]
2.03999924659729,0.011542183347046377,0.0007513774326071143,0.9229237437248231,-0.38480913639068604,[0. 0. 0. 0. 0. 0. 0. 0. 0.],0.015088174492120743,0.039096929132938385,-1.1514323949813845,[0. 0. 0. 0. 0. 0. 0. 0. 0.],1.61068069934845,-0.4843600690364838,9.497603416442873,[0. 0. 0. 0. 0. 0. 0. 0. 0.]
2.0599992275238037,0.011628862470388412,0.000745160155929625,0.9271430373191835,-0.37452676892280584,[0. 0. 0. 0. 0. 0. 0. 0. 0.],-0.03325344249606133,-0.013829771429300308,-1.156966805458069,[0. 0. 0. 0. 0. 0. 0. 0. 0.],0.19671027362346652,-0.4517673850059509,9.539248466491701,[0. 0. 0. 0. 0. 0. 0. 0. 0.]
2.0799992084503174,0.011647071689367294,0.0006842369330115617,0.9312466382980347,-0.3642030358314514,[0. 0. 0. 0. 0. 0. 0. 0. 0.],-0.004692376591265202,0.003909321036189795,-1.1540609598159792,[0. 0. 0. 0. 0. 0. 0. 0. 0.],1.2188708782196045,-0.7100919485092163,9.741501808166506,[0. 0. 0. 0. 0. 0. 0. 0. 0.]
2.1000001430511475,0.011664814315736296,0.0006313104531727732,0.9352356195449829,-0.35383379459381104,[0. 0. 0. 0. 0. 0. 0. 0. 0.],-0.01885742507874966,-0.015449527651071548,-1.1544231176376345,[0. 0. 0. 0. 0. 0. 0. 0. 0.],1.1767822504043581,-0.40437692403793335,9.686168670654297,[0. 0. 0. 0. 0. 0. 0. 0. 0.]
2.1200003623962402,0.011578036472201347,0.0005602751625701785,0.9391056895256044,-0.3434334993362427,[0. 0. 0. 0. 0. 0. 0. 0. 0.],-0.0034272680059075356,0.05889610946178436,-1.1499186754226687,[0. 0. 0. 0. 0. 0. 0. 0. 0.],0.820020318031311,0.12143378704786302,10.257914543151857,[0. 0. 0. 0. 0. 0. 0. 0. 0.]
2.140000343322754,0.011534899473190308,0.0003539010358508677,0.9428704977035522,-0.33296024799346924,[0. 0. 0. 0. 0. 0. 0. 0. 0.],-0.05130471661686898,0.017214570194482803,-1.1550623178482058,[0. 0. 0. 0. 0. 0. 0. 0. 0.],-0.20492814481258395,-1.409109115600586,9.34567642211914,[0. 0. 0. 0. 0. 0. 0. 0. 0.]
2.1600003242492676,0.011415424756705763,0.0002293144352734089,0.9465102553367616,-0.32247263193130493,[0. 0. 0. 0. 0. 0. 0. 0. 0.],-0.011597576551139356,0.03347919136285782,-1.1566150188446045,[0. 0. 0. 0. 0. 0. 0. 0. 0.],1.6661889553070068,-0.41973873972892767,10.009631156921388,[0. 0. 0. 0. 0. 0. 0. 0. 0.]
2.1800003051757812,0.011233542114496231,5.819091165903956e-05,0.9500351548194886,-0.3119416534900666,[0. 0. 0. 0. 0. 0. 0. 0. 0.],-0.03965498507022858,0.031109912320971492,-1.1536242961883545,[0. 0. 0. 0. 0. 0. 0. 0. 0.],-0.12354651838541032,-0.5476447939872743,9.834775924682617,[0. 0. 0. 0. 0. 0. 0. 0. 0.]
2.2000012397766113,0.01099140476435423,-0.00011337515024933964,0.9534462690353394,-0.3013631999492646,[0. 0. 0. 0. 0. 0. 0. 0. 0.],-0.016376381739974025,0.032097857445478446,-1.1531729698181152,[0. 0. 0. 0. 0. 0. 0. 0. 0.],1.295408010482788,-1.0906031131744385,9.725773811340334,[0. 0. 0. 0. 0. 0. 0. 0. 0.]
2.220001220703125,0.010724365711212158,-0.00029366317903622985,0.9566085338592529,-0.2911801636219025,[0. 0. 0. 0. 0. 0. 0. 0. 0.],-0.02072752453386784,0.023319579660892487,-1.154661536216736,[0. 0. 0. 0. 0. 0. 0. 0. 0.],0.548654615879059,0.25176975131034857,10.362432479858398,[0. 0. 0. 0. 0. 0. 0. 0. 0.]
2.2400012016296387,0.010399420745670797,-0.0004771051753778011,0.9596648216247559,-0.2809551954269409,[0. 0. 0. 0. 0. 0. 0. 0. 0.],-0.01213998068124056,0.042415425181388855,-1.1550743579864502,[0. 0. 0. 0. 0. 0. 0. 0. 0.],1.6864275932312012,-0.3414862453937531,9.607959747314453,[0. 0. 0. 0. 0. 0. 0. 0. 0.]
2.2600011825561523,0.010046891868114471,-0.0006916767451912165,0.962610423564911,-0.2707033157348633,[0. 0. 0. 0. 0. 0. 0. 0. 0.],-0.054802019149065025,0.06902442872524261,-1.155975937843323,[0. 0. 0. 0. 0. 0. 0. 0. 0.],-0.7084329128265381,0.1024804785847664,10.251794815063477,[0. 0. 0. 0. 0. 0. 0. 0. 0.]
2.280001163482666,0.00971723161637783,-0.0007676485693082213,0.9654468297958374,-0.26041996479034424,[0. 0. 0. 0. 0. 0. 0. 0. 0.],-0.013431911356747152,0.016125297173857692,-1.1583583354949951,[0. 0. 0. 0. 0. 0. 0. 0. 0.],0.5629559755325317,-0.7706815600395204,9.227725982666016,[0. 0. 0. 0. 0. 0. 0. 0. 0.]
2.3000011444091797,0.00930056907236576,-0.000878438528161496,0.9681808352470399,-0.2500797510147095,[0. 0. 0. 0. 0. 0. 0. 0. 0.],0.009354205802083015,0.057288277894258506,-1.1557819843292236,[0. 0. 0. 0. 0. 0. 0. 0. 0.],1.8057825565338135,0.05153625831007958,9.834403991699219,[0. 0. 0. 0. 0. 0. 0. 0. 0.]
2.3200020790100098,0.008916345424950125,-0.0010083875386044385,0.9708181023597718,-0.23965123295783997,[0. 0. 0. 0. 0. 0. 0. 0. 0.],-0.012435025535523893,0.042634472250938416,-1.1608009338378906,[0. 0. 0. 0. 0. 0. 0. 0. 0.],-0.25095999240875244,-0.07373645901679993,9.381287574768068,[0. 0. 0. 0. 0. 0. 0. 0. 0.]
2.3400020599365234,0.00846198294311762,-0.0010357743594795465,0.9733580350875854,-0.22913224995136264,[0. 0. 0. 0. 0. 0. 0. 0. 0.],0.0016890473198145628,0.04506783559918404,-1.1749720573425293,[0. 0. 0. 0. 0. 0. 0. 0. 0.],0.5414619445800781,-0.4778483510017395,10.668126106262209,[0. 0. 0. 0. 0. 0. 0. 0. 0.]
2.360002279281616,0.008036661893129349,-0.001047617057338357,0.975795090198517,-0.21853676438331604,[0. 0. 0. 0. 0. 0. 0. 0. 0.],0.0495515950024128,0.040859747678041465,-1.1780743598937988,[0. 0. 0. 0. 0. 0. 0. 0. 0.],0.6728647947311401,-0.4180332720279694,9.298660278320312,[0. 0. 0. 0. 0. 0. 0. 0. 0.]
2.38000226020813,0.007631290238350631,-0.0010087091941386461,0.9781246185302734,-0.20787729322910312,[0. 0. 0. 0. 0. 0. 0. 0. 0.],0.00815317314118147,0.03252849727869034,-1.1824477910995486,[0. 0. 0. 0. 0. 0. 0. 0. 0.],1.7729772329330447,-0.07167619466781616,10.310748100280763,[0. 0. 0. 0. 0. 0. 0. 0. 0.]
2.4000022411346436,0.007329636253416538,-0.000976117269601673,0.9803383946418763,-0.19718535244464877,[0. 0. 0. 0. 0. 0. 0. 0. 0.],0.005144628230482341,0.052256159484386444,-1.178473711013794,[0. 0. 0. 0. 0. 0. 0. 0. 0.],0.26013439893722534,-0.6546966433525087,9.148712158203125,[0. 0. 0. 0. 0. 0. 0. 0. 0.]
2.4200022220611572,0.007216311525553466,-0.0007961991941556334,0.9824312925338745,-0.18648387491703036,[0. 0. 0. 0. 0. 0. 0. 0. 0.],0.038526218384504325,-0.016024712473154068,-1.1811095476150515,[0. 0. 0. 0. 0. 0. 0. 0. 0.],-0.27729684114456177,-0.11205325275659563,9.786365509033203,[0. 0. 0. 0. 0. 0. 0. 0. 0.]
2.4400031566619873,0.007185430731624366,-0.0006277463980950416,0.9844083786010742,-0.175750806927681,[0. 0. 0. 0. 0. 0. 0. 0. 0.],0.0013448300305753946,0.008710475638508797,-1.1812318563461306,[0. 0. 0. 0. 0. 0. 0. 0. 0.],2.1085364818573002,-0.5233183503150941,9.610056877136232,[0. 0. 0. 0. 0. 0. 0. 0. 0.]
2.460003137588501,0.007410232443362475,-0.0004131152818445117,0.9862611889839173,-0.1650267690420151,[0. 0. 0. 0. 0. 0. 0. 0. 0.],0.015851862728595734,-0.029715908691287044,-1.178175687789917,[0. 0. 0. 0. 0. 0. 0. 0. 0.],-1.6218255758285525,-0.20867039263248446,10.332903861999513,[0. 0. 0. 0. 0. 0. 0. 0. 0.]
2.4800031185150146,0.007805399596691132,-3.8302277971524745e-05,0.9879848957061768,-0.15435473620891574,[0. 0. 0. 0. 0. 0. 0. 0. 0.],0.04492999613285065,-0.10622594505548479,-1.181099057197571,[0. 0. 0. 0. 0. 0. 0. 0. 0.],1.7675912380218506,-0.3988698720932007,10.085254669189453,[0. 0. 0. 0. 0. 0. 0. 0. 0.]
2.5000030994415283,0.008275575004518034,0.00033302215160802007,0.9895891547203065,-0.14368332922458651,[0. 0. 0. 0. 0. 0. 0. 0. 0.],0.03362970054149628,-0.03709645196795464,-1.1749927997589111,[0. 0. 0. 0. 0. 0. 0. 0. 0.],0.48207277059555054,0.6866662502288818,10.041277885437013,[0. 0. 0. 0. 0. 0. 0. 0. 0.]
2.520003080368042,0.00893441028892994,0.0007341002929024399,0.9910707473754883,-0.1330363899469376,[0. 0. 0. 0. 0. 0. 0. 0. 0.],0.009023402817547323,-0.0760198011994362,-1.1696581840515137,[0. 0. 0. 0. 0. 0. 0. 0. 0.],0.9842756390571595,0.15313392877578735,9.797430992126467,[0. 0. 0. 0. 0. 0. 0. 0. 0.]
2.540004014968872,0.009768822230398657,0.0011651123641058805,0.992431938648224,-0.12240066379308702,[0. 0. 0. 0. 0. 0. 0. 0. 0.],0.039626475423574455,-0.08192066848278046,-1.164325833320618,[0. 0. 0. 0. 0. 0. 0. 0. 0.],0.9544905424118042,-0.3370350301265717,9.287487030029297,[0. 0. 0. 0. 0. 0. 0. 0. 0.]
2.5600039958953857,0.010794280096888542,0.001517788739874959,0.9936753511428833,-0.11176073551177979,[0. 0. 0. 0. 0. 0. 0. 0. 0.],-0.004766882862895728,-0.12028221786022186,-1.1675152778625488,[0. 0. 0. 0. 0. 0. 0. 0. 0.],0.6208079457283021,-0.17927142977714539,9.952023506164553,[0. 0. 0. 0. 0. 0. 0. 0. 0.]
2.5800039768218994,0.01190355233848095,0.0018858589464798572,0.9948003888130189,-0.10113187879323961,[0. 0. 0. 0. 0. 0. 0. 0. 0.],0.019638992846012115,-0.11607713252305986,-1.1614668369293213,[0. 0. 0. 0. 0. 0. 0. 0. 0.],0.6644117236137391,0.07884206622838975,9.768647193908693,[0. 0. 0. 0. 0. 0. 0. 0. 0.]
2.600004196166992,0.013177202083170416,0.0021675571333616976,0.9958032965660096,-0.09054269641637804,[0. 0. 0. 0. 0. 0. 0. 0. 0.],0.016365204006433487,-0.1439288854598999,-1.1568475961685183,[0. 0. 0. 0. 0. 0. 0. 0. 0.],0.997157394886017,-0.13952074944972995,10.116987228393555,[0. 0. 0. 0. 0. 0. 0. 0. 0.]
2.620004177093506,0.014466986060142517,0.00232815626077354,0.9966858625411987,-0.08001737296581268,[0. 0. 0. 0. 0. 0. 0. 0. 0.],-0.007729235105216503,-0.11646305769681932,-1.1503074169158936,[0. 0. 0. 0. 0. 0. 0. 0. 0.],1.9823843240737917,0.3917766213417053,9.51047134399414,[0. 0. 0. 0. 0. 0. 0. 0. 0.]
2.6400041580200195,0.015834368765354156,0.0023963209241628647,0.9974516034126283,-0.06952653080224992,[0. 0. 0. 0. 0. 0. 0. 0. 0.],-0.04845710471272469,-0.12907686829566956,-1.1444170475006104,[0. 0. 0. 0. 0. 0. 0. 0. 0.],0.5822922587394715,0.5419145226478578,10.278199195861818,[0. 0. 0. 0. 0. 0. 0. 0. 0.]
2.6600050926208496,0.017196666449308395,0.0023683041799813513,0.9981018900871278,-0.05908816307783127,[0. 0. 0. 0. 0. 0. 0. 0. 0.],-0.03608466312289239,-0.12470933794975281,-1.1380602121353152,[0. 0. 0. 0. 0. 0. 0. 0. 0.],1.5649728775024414,-0.30629366636276245,9.096703529357912,[0. 0. 0. 0. 0. 0. 0. 0. 0.]
2.6800050735473633,0.018567865714430812,0.0022343401797115803,0.9986385107040405,-0.04869503527879715,[0. 0. 0. 0. 0. 0. 0. 0. 0.],-0.06517621129751207,-0.1415446847677231,-1.1318774223327637,[0. 0. 0. 0. 0. 0. 0. 0. 0.],-0.06370227783918382,0.21297824382781982,10.141453742980959,[0. 0. 0. 0. 0. 0. 0. 0. 0.]
2.700005054473877,0.01976853981614113,0.001922377501614392,0.9990679025650024,-0.038331538438797,[0. 0. 0. 0. 0. 0. 0. 0. 0.],-0.07994028180837633,-0.10855498909950256,-1.134071230888367,[0. 0. 0. 0. 0. 0. 0. 0. 0.],1.0478293895721436,0.027861265465617183,9.17080307006836,[0. 0. 0. 0. 0. 0. 0. 0. 0.]
2.7200050354003906,0.020901223644614223,0.0015823928406462075,0.9993900060653687,-0.02794938161969185,[0. 0. 0. 0. 0. 0. 0. 0. 0.],-0.05645158141851425,-0.11637813597917558,-1.13182270526886,[0. 0. 0. 0. 0. 0. 0. 0. 0.],1.427471399307251,0.7399591803550721,10.173938751220703,[0. 0. 0. 0. 0. 0. 0. 0. 0.]
2.7400050163269043,0.02187487483024597,0.001060432055965066,0.99960595369339,-0.017582988366484645,[0. 0. 0. 0. 0. 0. 0. 0. 0.],-0.08039627224206926,-0.08586052060127258,-1.126902222633362,[0. 0. 0. 0. 0. 0. 0. 0. 0.],2.5081405639648438,0.36767241358757025,9.017265319824219,[0. 0. 0. 0. 0. 0. 0. 0. 0.]
2.760004997253418,0.022631607949733734,0.0004047266847919673,0.9997180104255677,-0.00725454930216074,[0. 0. 0. 0. 0. 0. 0. 0. 0.],-0.09501729160547258,-0.06378742307424547,-1.1176915168762207,[0. 0. 0. 0. 0. 0. 0. 0. 0.],1.064255952835083,1.1640132665634157,10.394154548645021,[0. 0. 0. 0. 0. 0. 0. 0. 0.]
2.780005931854248,0.023254286497831345,-0.0003098480810876936,0.999725341796875,0.0030199745669960976,[0. 0. 0. 0. 0. 0. 0. 0. 0.],-0.12498799711465837,-0.04197508841753006,-1.1151496171951296,[0. 0. 0. 0. 0. 0. 0. 0. 0.],1.4259632825851443,-0.10994400084018707,9.160097122192383,[0. 0. 0. 0. 0. 0. 0. 0. 0.]
2.8000059127807617,0.023573393002152446,-0.0010664034634828568,0.9996342062950135,0.013233393430709839,[0. 0. 0. 0. 0. 0. 0. 0. 0.],-0.07422866672277452,-0.010855497792363167,-1.1032047271728516,[0. 0. 0. 0. 0. 0. 0. 0. 0.],0.5322917699813843,1.5764098167419434,9.942570686340334,[0. 0. 0. 0. 0. 0. 0. 0. 0.]
2.8200058937072754,0.023762520402669907,-0.0019089642446488142,0.9994420409202577,0.023401569575071335,[0. 0. 0. 0. 0. 0. 0. 0. 0.],-0.12527260184288025,-0.01830757223069668,-1.1037888526916504,[0. 0. 0. 0. 0. 0. 0. 0. 0.],0.3748418092727661,-0.27150204777717596,9.739465713500977,[0. 0. 0. 0. 0. 0. 0. 0. 0.]
2.840006113052368,0.023676268756389618,-0.0026597492396831512,0.9991545081138612,0.033511750400066376,[0. 0. 0. 0. 0. 0. 0. 0. 0.],-0.07690343260765076,0.010655824095010757,-1.0973757505416872,[0. 0. 0. 0. 0. 0. 0. 0. 0.],0.5841440558433534,0.3520230948925019,10.462677001953125,[0. 0. 0. 0. 0. 0. 0. 0. 0.]
2.8600070476531982,0.02337674237787724,-0.00344423414207995,0.9987725019454956,0.04354890808463097,[0. 0. 0. 0. 0. 0. 0. 0. 0.],-0.07341846823692322,0.013309613801538946,-1.0853362083435059,[0. 0. 0. 0. 0. 0. 0. 0. 0.],2.412808418273926,0.1779468804597855,10.024988174438477,[0. 0. 0. 0. 0. 0. 0. 0. 0.]
2.880007028579712,0.02292018570005894,-0.0040978346951305875,0.9982963800430298,0.053508318960666656,[0. 0. 0. 0. 0. 0. 0. 0. 0.],-0.07762315124273302,0.08841681480407715,-1.086287498474121,[0. 0. 0. 0. 0. 0. 0. 0. 0.],0.3907001912593842,1.080674648284912,10.322129249572756,[0. 0. 0. 0. 0. 0. 0. 0. 0.]
2.9000070095062256,0.022207539528608322,-0.004650624003261329,0.997729241847992,0.06342270225286485,[0. 0. 0. 0. 0. 0. 0. 0. 0.],-0.08917156606912614,0.0844411700963974,-1.0767866373062136,[0. 0. 0. 0. 0. 0. 0. 0. 0.],0.7335808277130127,0.42656999826431274,10.414278984069826,[0. 0. 0. 0. 0. 0. 0. 0. 0.]
2.9200069904327393,0.02139413543045521,-0.004951963201165199,0.9970716238021851,0.07325325161218645,[0. 0. 0. 0. 0. 0. 0. 0. 0.],-0.033734746277332306,0.0891261100769043,-1.0728005170822146,[0. 0. 0. 0. 0. 0. 0. 0. 0.],0.4776865839958191,0.21941776573657992,10.134918212890625,[0. 0. 0. 0. 0. 0. 0. 0. 0.]
2.940006971359253,0.020390341058373455,-0.005162328016012908,0.9963244199752808,0.08303850144147874,[0. 0. 0. 0. 0. 0. 0. 0. 0.],-0.041982538998126984,0.09076523035764696,-1.072415828704834,[0. 0. 0. 0. 0. 0. 0. 0. 0.],1.6149535179138184,0.2616855204105378,9.741031646728516,[0. 0. 0. 0. 0. 0. 0. 0. 0.]
2.9599978923797607,0.01917092502117157,-0.005136106628924609,0.9954719543457031,0.09296309202909471,[0. 0. 0. 0. 0. 0. 0. 0. 0.],-0.010948630981147291,0.12838992476463318,-1.0661327838897705,[0. 0. 0. 0. 0. 0. 0. 0. 0.],0.7287609577178955,1.1608617305755615,10.240797996520998,[0. 0. 0. 0. 0. 0. 0. 0. 0.]
2.979998826980591,0.017935445532202724,-0.005027679726481438,0.9945038557052612,0.10303161293268205,[0. 0. 0. 0. 0. 0. 0. 0. 0.],-0.01689792051911354,0.11801946908235551,-1.0724174976348877,[0. 0. 0. 0. 0. 0. 0. 0. 0.],0.496901422739029,0.437113881111145,10.290001869201662,[0. 0. 0. 0. 0. 0. 0. 0. 0.]
2.9999990463256836,0.01646213792264462,-0.004656389355659485,0.993442475795746,0.1130475103855133,[0. 0. 0. 0. 0. 0. 0. 0. 0.],0.03220812603831292,0.1736753433942795,-1.0637047290802002,[0. 0. 0. 0. 0. 0. 0. 0. 0.],1.6314646005630495,0.979621708393097,10.347640991210938,[0. 0. 0. 0. 0. 0. 0. 0. 0.]
3.0199990272521973,0.015033045783638954,-0.004145244602113963,0.992285192012787,0.12299422174692155,[0. 0. 0. 0. 0. 0. 0. 0. 0.],0.020085280761122707,0.1574591100215912,-1.0586711168289187,[0. 0. 0. 0. 0. 0. 0. 0. 0.],0.1983626037836075,0.8477463126182557,10.297407150268555,[0. 0. 0. 0. 0. 0. 0. 0. 0.]
3.039999008178711,0.013561790809035301,-0.003479226725175977,0.991033673286438,0.13287808001041415,[0. 0. 0. 0. 0. 0. 0. 0. 0.],0.035802286118268974,0.1593448519706726,-1.0544941425323486,[0. 0. 0. 0. 0. 0. 0. 0. 0.],0.7298725843429565,0.34170103073120117,9.593747138977053,[0. 0. 0. 0. 0. 0. 0. 0. 0.]
3.0599989891052246,0.012165123596787453,-0.002708857413381338,0.989692211151123,0.14266796410083774,[0. 0. 0. 0. 0. 0. 0. 0. 0.],0.05116986110806466,0.13096410036087036,-1.0429581403732302,[0. 0. 0. 0. 0. 0. 0. 0. 0.],0.31029769778251654,0.6395981907844545,9.782359123229982,[0. 0. 0. 0. 0. 0. 0. 0. 0.]
3.0799989700317383,0.010922721587121488,-0.0018038126872852447,0.9882636666297914,0.15235655009746554,[0. 0. 0. 0. 0. 0. 0. 0. 0.],0.058030351996421814,0.13666677474975586,-1.033260226249695,[0. 0. 0. 0. 0. 0. 0. 0. 0.],0.971857249736786,0.5966047048568726,9.345182418823242,[0. 0. 0. 0. 0. 0. 0. 0. 0.]
3.0999999046325684,0.009828471578657629,-0.0008237970178015531,0.9867479205131532,0.1619599163532257,[0. 0. 0. 0. 0. 0. 0. 0. 0.],0.07127450406551361,0.09836184233427049,-1.0269300937652588,[0. 0. 0. 0. 0. 0. 0. 0. 0.],0.41877016425132757,0.8577911257743837,10.305641174316406,[0. 0. 0. 0. 0. 0. 0. 0. 0.]
3.119999885559082,0.009023425169289114,0.00020070713071618232,0.9851516485214233,0.1714516282081604,[0. 0. 0. 0. 0. 0. 0. 0. 0.],0.08023829758167267,0.08181931823492052,-1.0221289396286013,[0. 0. 0. 0. 0. 0. 0. 0. 0.],1.4978357553482058,0.8807503581047059,9.222686767578125,[0. 0. 0. 0. 0. 0. 0. 0. 0.]
3.1399998664855957,0.00842159241437912,0.0012374100042507055,0.9834712147712709,0.1808660924434662,[0. 0. 0. 0. 0. 0. 0. 0. 0.],0.08080007880926134,0.07161648571491241,-1.015421271324158,[0. 0. 0. 0. 0. 0. 0. 0. 0.],0.3432498574256897,1.386861801147461,10.193416595458984,[0. 0. 0. 0. 0. 0. 0. 0. 0.]
3.1599998474121094,0.008045412600040436,0.002220706315711141,0.9817053675651551,0.1902247667312622,[0. 0. 0. 0. 0. 0. 0. 0. 0.],0.07627085596323015,0.0355161838233471,-1.014007806777954,[0. 0. 0. 0. 0. 0. 0. 0. 0.],0.7417502999305726,0.6567057371139526,9.157550811767578,[0. 0. 0. 0. 0. 0. 0. 0. 0.]
3.179999828338623,0.007887082174420357,0.0031947745010256767,0.9798535704612733,0.19953544437885287,[0. 0. 0. 0. 0. 0. 0. 0. 0.],0.09930509328842163,0.018925229087471965,-1.0054740905761719,[0. 0. 0. 0. 0. 0. 0. 0. 0.],0.23151065409183505,1.123255729675293,9.812302589416506,[0. 0. 0. 0. 0. 0. 0. 0. 0.]
3.200000762939453,0.007891438901424408,0.0040084314532578,0.9779261946678163,0.20876306295394897,[0. 0. 0. 0. 0. 0. 0. 0. 0.],0.07527099549770355,0.0051297261379659185,-0.9981291890144349,[0. 0. 0. 0. 0. 0. 0. 0. 0.],0.8077704310417176,0.44048371911048895,8.820629119873047,[0. 0. 0. 0. 0. 0. 0. 0. 0.]
3.220000743865967,0.008133282884955406,0.004699059296399356,0.975766658782959,0.21861189603805542,[0. 0. 0. 0. 0. 0. 0. 0. 0.],0.054534550756216056,-0.03154279291629791,-0.9926367402076722,[0. 0. 0. 0. 0. 0. 0. 0. 0.],0.42424583435058594,0.8638907074928285,9.963551521301271,[0. 0. 0. 0. 0. 0. 0. 0. 0.]
3.2400009632110596,0.008516970090568067,0.005254284013062716,0.9735227227211,0.2283717691898346,[0. 0. 0. 0. 0. 0. 0. 0. 0.],0.06951170414686204,-0.048188883811235435,-0.9841281175613403,[0. 0. 0. 0. 0. 0. 0. 0. 0.],1.428288459777832,0.14231120049953463,9.139007568359375,[0. 0. 0. 0. 0. 0. 0. 0. 0.]
3.2600009441375732,0.00905208755284548,0.0057281386107206345,0.9711987972259521,0.23803128302097323,[0. 0. 0. 0. 0. 0. 0. 0. 0.],0.05831942707300186,-0.04772992059588433,-0.9762452840805054,[0. 0. 0. 0. 0. 0. 0. 0. 0.],0.726416826248169,1.2832763195037842,9.65679931640625,[0. 0. 0. 0. 0. 0. 0. 0. 0.]
3.280000925064087,0.00974392518401146,0.0060362303629517555,0.9688033461570741,0.24756605923175815,[0. 0. 0. 0. 0. 0. 0. 0. 0.],0.011066350154578687,-0.07857532799243927,-0.959240198135376,[0. 0. 0. 0. 0. 0. 0. 0. 0.],0.02111894264817238,0.6769538521766664,9.814860343933107,[0. 0. 0. 0. 0. 0. 0. 0. 0.]
3.3000009059906006,0.010554060339927673,0.006227768491953612,0.9663418531417847,0.2569698095321655,[0. 0. 0. 0. 0. 0. 0. 0. 0.],0.05369113758206368,-0.09227396547794342,-0.9489181637763978,[0. 0. 0. 0. 0. 0. 0. 0. 0.],0.6304398775100708,0.4525219202041626,9.141978263854982,[0. 0. 0. 0. 0. 0. 0. 0. 0.]
3.3200018405914307,0.011482262052595617,0.006309767719358207,0.9638294577598573,0.2661990523338318,[0. 0. 0. 0. 0. 0. 0. 0. 0.],0.016931448131799698,-0.09386391937732697,-0.9307058453559877,[0. 0. 0. 0. 0. 0. 0. 0. 0.],1.359551548957825,1.1606886386871338,9.634390830993654,[0. 0. 0. 0. 0. 0. 0. 0. 0.]
3.3400018215179443,0.01240359526127577,0.006223078817129135,0.961271107196808,0.27525532245635986,[0. 0. 0. 0. 0. 0. 0. 0. 0.],0.008842350915074348,-0.10213556140661241,-0.9146379232406616,[0. 0. 0. 0. 0. 0. 0. 0. 0.],0.2891659140586853,1.045708775520325,9.126780509948732,[0. 0. 0. 0. 0. 0. 0. 0. 0.]
3.360001802444458,0.01338064391165972,0.0060612475499510765,0.9586742520332338,0.28412801027297974,[0. 0. 0. 0. 0. 0. 0. 0. 0.],-0.0027194626163691287,-0.12582096457481384,-0.9027944803237915,[0. 0. 0. 0. 0. 0. 0. 0. 0.],1.1622645854949951,0.5903765559196473,9.677286148071289,[0. 0. 0. 0. 0. 0. 0. 0. 0.]
3.3800017833709717,0.0143124470487237,0.005847134161740542,0.9560391902923584,0.2928318977355957,[0. 0. 0. 0. 0. 0. 0. 0. 0.],0.0050909831188619145,-0.09216369688510895,-0.884446680545807,[0. 0. 0. 0. 0. 0. 0. 0. 0.],1.3972859382629395,1.292104959487915,9.73658084869385,[0. 0. 0. 0. 0. 0. 0. 0. 0.]
3.4000017642974854,0.015218294225633146,0.005508641246706248,0.9533762335777284,0.30134981870651245,[0. 0. 0. 0. 0. 0. 0. 0. 0.],-0.027602914720773697,-0.10264666378498077,-0.8699001669883729,[0. 0. 0. 0. 0. 0. 0. 0. 0.],0.4333892762660981,0.71865051984787,10.053335189819336,[0. 0. 0. 0. 0. 0. 0. 0. 0.]
3.420001745223999,0.01609477400779724,0.0051613165996968755,0.9506950974464418,0.30966734886169434,[0. 0. 0. 0. 0. 0. 0. 0. 0.],-0.0011146072065457704,-0.0969320684671402,-0.8499459624290467,[0. 0. 0. 0. 0. 0. 0. 0. 0.],0.6644743084907533,0.4787214994430542,9.609729766845703,[0. 0. 0. 0. 0. 0. 0. 0. 0.]
3.440002918243408,0.01685361936688423,0.004730360582470894,0.9479954838752748,0.317801296710968,[0. 0. 0. 0. 0. 0. 0. 0. 0.],-0.022016467526555065,-0.09617507457733154,-0.8327052593231201,[0. 0. 0. 0. 0. 0. 0. 0. 0.],0.8741231560707093,0.6415550708770752,9.751884460449219,[0. 0. 0. 0. 0. 0. 0. 0. 0.]
3.4600026607513428,0.017563363537192348,0.004310641437768936,0.9451658725738525,0.32609039545059204,[0. 0. 0. 0. 0. 0. 0. 0. 0.],-0.034695874899625785,-0.09772184491157532,-0.8105892539024354,[0. 0. 0. 0. 0. 0. 0. 0. 0.],1.3630433082580566,0.6240751147270204,9.675414085388185,[0. 0. 0. 0. 0. 0. 0. 0. 0.]
3.4800028800964355,0.01812087371945381,0.0037990098353475337,0.9421891570091249,0.334570050239563,[0. 0. 0. 0. 0. 0. 0. 0. 0.],-0.030703848227858547,-0.08966924995183946,-0.7946879863739014,[0. 0. 0. 0. 0. 0. 0. 0. 0.],0.9497841596603394,0.4114039242267609,10.111294746398928,[0. 0. 0. 0. 0. 0. 0. 0. 0.]
3.500002861022949,0.018533270806074142,0.0033561289310455322,0.9391872882843018,0.34288865327835083,[0. 0. 0. 0. 0. 0. 0. 0. 0.],-0.03914237767457962,-0.04875214025378228,-0.7820889949798584,[0. 0. 0. 0. 0. 0. 0. 0. 0.],1.8006007671356201,0.7684482336044312,9.897183418273928,[0. 0. 0. 0. 0. 0. 0. 0. 0.]
3.520002841949463,0.018827298656106,0.002874370897188783,0.9361808896064759,0.35100331902503973,[0. 0. 0. 0. 0. 0. 0. 0. 0.],-0.05969852954149246,-0.041058670729398734,-0.7581444382667543,[0. 0. 0. 0. 0. 0. 0. 0. 0.],0.4217645525932312,0.7716631293296815,10.326837539672852,[0. 0. 0. 0. 0. 0. 0. 0. 0.]
3.540003776550293,0.019006315618753433,0.002396056428551674,0.933163046836853,0.3589427769184113,[0. 0. 0. 0. 0. 0. 0. 0. 0.],-0.04236792027950287,-0.028461759909987453,-0.7444534301757812,[0. 0. 0. 0. 0. 0. 0. 0. 0.],0.8928030133247377,0.16453941166400912,9.601783752441406,[0. 0. 0. 0. 0. 0. 0. 0. 0.]
3.5600037574768066,0.019128626212477687,0.0019108095439150932,0.9301406145095825,0.3667000830173493,[0. 0. 0. 0. 0. 0. 0. 0. 0.],-0.05785823985934258,-0.033707927912473686,-0.7301182746887207,[0. 0. 0. 0. 0. 0. 0. 0. 0.],0.5858145952224731,0.7571377754211426,10.418642044067383,[0. 0. 0. 0. 0. 0. 0. 0. 0.]
3.5800037384033203,0.019133999943733215,0.0014203101163730027,0.9271183013916016,0.37427803874015814,[0. 0. 0. 0. 0. 0. 0. 0. 0.],-0.04500747472047806,-0.01402497570961714,-0.7109687328338623,[0. 0. 0. 0. 0. 0. 0. 0. 0.],1.2008998394012451,0.1962815821170807,9.510068893432617,[0. 0. 0. 0. 0. 0. 0. 0. 0.]
3.600003719329834,0.01912057399749756,0.0009700278751552105,0.9241090416908265,0.38164883852005005,[0. 0. 0. 0. 0. 0. 0. 0. 0.],-0.06255508959293365,-0.04144759103655816,-0.6910579800605775,[0. 0. 0. 0. 0. 0. 0. 0. 0.],0.8780123591423036,0.7059744000434877,10.506840705871584,[0. 0. 0. 0. 0. 0. 0. 0. 0.]
3.6200037002563477,0.01907233335077763,0.0005534360534511508,0.9211220741271973,0.3888063430786133,[0. 0. 0. 0. 0. 0. 0. 0. 0.],-0.046615313738584525,-0.017619136720895767,-0.6732078194618226,[0. 0. 0. 0. 0. 0. 0. 0. 0.],1.749477028846741,0.4596831202507019,9.61522960662842,[0. 0. 0. 0. 0. 0. 0. 0. 0.]
3.6400036811828613,0.01896665245294571,0.00015796261141076684,0.9181613326072694,0.39575350284576416,[0. 0. 0. 0. 0. 0. 0. 0. 0.],-0.06194711849093438,-0.010406973771750929,-0.6506890058517456,[0. 0. 0. 0. 0. 0. 0. 0. 0.],0.7917379736900331,1.105135440826416,10.365325927734375,[0. 0. 0. 0. 0. 0. 0. 0. 0.]
3.6600048542022705,0.01889598183333874,-0.00017176245455630124,0.9152209758758545,0.4025095403194428,[0. 0. 0. 0. 0. 0. 0. 0. 0.],-0.04067123681306839,-0.006203354801982642,-0.6298632621765137,[0. 0. 0. 0. 0. 0. 0. 0. 0.],1.0088310241699219,0.1001143977046013,9.268469810485842,[0. 0. 0. 0. 0. 0. 0. 0. 0.]
3.680004835128784,0.018856048583984375,-0.0004141280078329146,0.9123134613037109,0.409058153629303,[0. 0. 0. 0. 0. 0. 0. 0. 0.],-0.033131249248981476,-0.012469294480979444,-0.6124631762504579,[0. 0. 0. 0. 0. 0. 0. 0. 0.],0.8303701877593994,0.9685195088386537,10.279901504516602,[0. 0. 0. 0. 0. 0. 0. 0. 0.]
3.7000045776367188,0.018753966316580776,-0.0006211069412529469,0.9094299077987671,0.4154348373413086,[0. 0. 0. 0. 0. 0. 0. 0. 0.],-0.023178759962320328,-0.005388261284679175,-0.5944342613220215,[0. 0. 0. 0. 0. 0. 0. 0. 0.],1.5349783897399902,0.2334942072629929,9.144822120666506,[0. 0. 0. 0. 0. 0. 0. 0. 0.]
3.7200047969818115,0.018669169396162033,-0.0007871547131799163,0.9062637686729432,0.4223001003265381,[0. 0. 0. 0. 0. 0. 0. 0. 0.],-0.014282765798270704,-0.02394467778503895,-0.5730777978897095,[0. 0. 0. 0. 0. 0. 0. 0. 0.],0.847081184387207,0.6938340067863465,10.286425590515138,[0. 0. 0. 0. 0. 0. 0. 0. 0.]
3.740004777908325,0.018505735322833065,-0.0008841179078444839,0.9031170606613159,0.4289952218532563,[0. 0. 0. 0. 0. 0. 0. 0. 0.],-0.007864834740757942,0.013745578937232496,-0.5578757524490356,[0. 0. 0. 0. 0. 0. 0. 0. 0.],1.824767827987671,0.6746811270713807,9.222440719604492,[0. 0. 0. 0. 0. 0. 0. 0. 0.]
3.760004758834839,0.01828823983669281,-0.0009622631478123368,0.9000028967857362,0.435499519109726,[0. 0. 0. 0. 0. 0. 0. 0. 0.],-0.03471077233552933,0.02671853266656399,-0.5421177744865419,[0. 0. 0. 0. 0. 0. 0. 0. 0.],0.5842012166976929,1.1042481660842898,10.36945915222168,[0. 0. 0. 0. 0. 0. 0. 0. 0.]
3.780005693435669,0.018078144639730453,-0.000975426461081952,0.8969085216522217,0.441847026348114,[0. 0. 0. 0. 0. 0. 0. 0. 0.],-0.01789778843522072,0.016220664605498317,-0.5312994718551636,[0. 0. 0. 0. 0. 0. 0. 0. 0.],1.1066598892211914,0.0893523246049881,9.035993576049805,[0. 0. 0. 0. 0. 0. 0. 0. 0.]
3.8000056743621826,0.017810175195336345,-0.000916768505703658,0.8938310146331787,0.44805040955543524,[0. 0. 0. 0. 0. 0. 0. 0. 0.],-0.0006467103958129883,0.0154592115432024,-0.5137891173362733,[0. 0. 0. 0. 0. 0. 0. 0. 0.],1.2559167146682741,0.7874021530151367,9.664896965026857,[0. 0. 0. 0. 0. 0. 0. 0. 0.]
3.8200056552886963,0.017512526363134384,-0.0008471292676404119,0.8907664418220521,0.45412364602088934,[0. 0. 0. 0. 0. 0. 0. 0. 0.],-0.007714332081377506,0.042314831167459495,-0.5020171403884888,[0. 0. 0. 0. 0. 0. 0. 0. 0.],0.9356225132942201,0.4039051830768586,8.996450424194336,[0. 0. 0. 0. 0. 0. 0. 0. 0.]
3.84000563621521,0.017195193096995357,-0.000716796494089067,0.8877167105674745,0.4600687921047211,[0. 0. 0. 0. 0. 0. 0. 0. 0.],-0.013372303918004036,0.026223065331578258,-0.493683010339737,[0. 0. 0. 0. 0. 0. 0. 0. 0.],0.5101575255393983,0.5795824527740479,9.98166275024414,[0. 0. 0. 0. 0. 0. 0. 0. 0.]
3.8600056171417236,0.0169416144490242,-0.0005116535467095674,0.8846725225448608,0.4659047424793244,[0. 0. 0. 0. 0. 0. 0. 0. 0.],0.011048465967178345,0.02080127783119679,-0.4809722900390625,[0. 0. 0. 0. 0. 0. 0. 0. 0.],1.9319703578948975,0.4528607130050659,9.403579711914062,[0. 0. 0. 0. 0. 0. 0. 0. 0.]
3.8800055980682373,0.016656164079904556,-0.0002744178927969188,0.8816493153572084,0.47161126136779785,[0. 0. 0. 0. 0. 0. 0. 0. 0.],0.013716520741581917,0.049389906227588654,-0.4667133986949921,[0. 0. 0. 0. 0. 0. 0. 0. 0.],0.5640425682067871,0.7192884087562562,10.07253932952881,[0. 0. 0. 0. 0. 0. 0. 0. 0.]
3.900005578994751,0.01642267964780331,-1.1916476069018245e-05,0.8786386847496034,0.4772055745124817,[0. 0. 0. 0. 0. 0. 0. 0. 0.],-0.008817019872367384,0.03769771009683609,-0.45849540829658514,[0. 0. 0. 0. 0. 0. 0. 0. 0.],0.308388501405716,0.2870050072669983,9.728181838989258,[0. 0. 0. 0. 0. 0. 0. 0. 0.]
3.9200057983398438,0.01619297079741955,0.00030115293338894844,0.8756347894668579,0.4827034175395966,[0. 0. 0. 0. 0. 0. 0. 0. 0.],0.025527929887175563,0.03516153246164322,-0.45111632347106934,[0. 0. 0. 0. 0. 0. 0. 0. 0.],0.5597903728485107,0.47045373916625977,9.61927890777588,[0. 0. 0. 0. 0. 0. 0. 0. 0.]
3.9400057792663574,0.015881193801760677,0.000587562972214073,0.872612476348877,0.48815599083900457,[0. 0. 0. 0. 0. 0. 0. 0. 0.],0.00017508867313154042,0.03991947695612908,-0.4515514373779297,[0. 0. 0. 0. 0. 0. 0. 0. 0.],1.1334812641143799,0.3975839316844941,9.688538551330568,[0. 0. 0. 0. 0. 0. 0. 0. 0.]
3.9599976539611816,0.015549470670521261,0.0008830428123474121,0.8694366216659546,0.49379944801330566,[0. 0. 0. 0. 0. 0. 0. 0. 0.],0.005903095938265324,0.03274903446435928,-0.44173756241798406,[0. 0. 0. 0. 0. 0. 0. 0. 0.],0.32371547818183904,0.559855878353119,9.746092796325685,[0. 0. 0. 0. 0. 0. 0. 0. 0.]
3.9799985885620117,0.015251089818775656,0.0011638196883723142,0.8660967350006104,0.4996423423290253,[0. 0. 0. 0. 0. 0. 0. 0. 0.],0.0012300912057980897,0.027955323457717896,-0.4371271431446076,[0. 0. 0. 0. 0. 0. 0. 0. 0.],1.5261677503585818,0.30222445726394653,9.577737808227539,[0. 0. 0. 0. 0. 0. 0. 0. 0.]
3.9999985694885254,0.014914083294570448,0.0014195316471159458,0.8627306818962098,0.5054414868354798,[0. 0. 0. 0. 0. 0. 0. 0. 0.],0.000657886324916035,0.057584792375564575,-0.4341810941696167,[0. 0. 0. 0. 0. 0. 0. 0. 0.],1.2729542255401611,1.159637451171875,10.047021865844727,[0. 0. 0. 0. 0. 0. 0. 0. 0.]
4.019998550415039,0.014545279555022718,0.001551181310787797,0.8593398332595825,0.5111957192420961,[0. 0. 0. 0. 0. 0. 0. 0. 0.],-0.02894550934433937,0.03857688233256341,-0.4341513514518738,[0. 0. 0. 0. 0. 0. 0. 0. 0.],0.1342625916004181,0.38495826721191406,10.155909538269045,[0. 0. 0. 0. 0. 0. 0. 0. 0.]
4.039998531341553,0.014187922701239586,0.0017238045111298561,0.8559264540672303,0.5168998837471009,[0. 0. 0. 0. 0. 0. 0. 0. 0.],-0.0038310887757688765,0.03722235932946206,-0.42785704135894775,[0. 0. 0. 0. 0. 0. 0. 0. 0.],0.4265864789485932,0.5067650675773622,9.721371650695803,[0. 0. 0. 0. 0. 0. 0. 0. 0.]
4.059998512268066,0.01385367289185524,0.0017980695702135563,0.8525043129920961,0.5225331187248231,[0. 0. 0. 0. 0. 0. 0. 0. 0.],-0.019916892051696777,0.017248095944523815,-0.4206523299217224,[0. 0. 0. 0. 0. 0. 0. 0. 0.],0.6635998487472534,0.5145455598831177,9.905224800109865,[0. 0. 0. 0. 0. 0. 0. 0. 0.]
4.07999849319458,0.013521424494683744,0.0018460791325196626,0.8490795493125917,0.5280883908271791,[0. 0. 0. 0. 0. 0. 0. 0. 0.],-0.002549588680267334,0.030266499146819118,-0.41002038121223455,[0. 0. 0. 0. 0. 0. 0. 0. 0.],0.20502614974975586,0.5865641236305238,9.567708969116211,[0. 0. 0. 0. 0. 0. 0. 0. 0.]
4.099999666213989,0.013251804746687414,0.0017871560994535685,0.8456389904022217,0.5335875749588013,[0. 0. 0. 0. 0. 0. 0. 0. 0.],-0.03466308489441872,0.004689395427703857,-0.41142705082893377,[0. 0. 0. 0. 0. 0. 0. 0. 0.],0.8860129714012147,0.4855267703533173,10.11596202850342,[0. 0. 0. 0. 0. 0. 0. 0. 0.]
4.119999647140503,0.012964912690222265,0.0016871442785486581,0.8421990871429443,0.5390077233314515,[0. 0. 0. 0. 0. 0. 0. 0. 0.],-0.017899274826049805,0.02804175391793251,-0.402230054140091,[0. 0. 0. 0. 0. 0. 0. 0. 0.],1.5001237392425537,0.6688057780265809,9.883347511291506,[0. 0. 0. 0. 0. 0. 0. 0. 0.]
4.139999628067017,0.012610741890966894,0.0014958163956180217,0.8387546539306641,0.5443614721298218,[0. 0. 0. 0. 0. 0. 0. 0. 0.],-0.04926919937133789,0.011075288988649847,-0.39753615856170654,[0. 0. 0. 0. 0. 0. 0. 0. 0.],0.14059647917747498,0.67372727394104,10.20318603515625,[0. 0. 0. 0. 0. 0. 0. 0. 0.]
4.15999960899353,0.01232204493135214,0.00127821636851877,0.8352985382080078,0.5496569871902466,[0. 0. 0. 0. 0. 0. 0. 0. 0.],-0.030553346499800686,0.005614013411104679,-0.39583897590637207,[0. 0. 0. 0. 0. 0. 0. 0. 0.],0.295202374458313,0.02003814466297627,9.300143241882326,[0. 0. 0. 0. 0. 0. 0. 0. 0.]
4.179999589920044,0.01207720395177603,0.000969636021181941,0.8318334221839906,0.554892897605896,[0. 0. 0. 0. 0. 0. 0. 0. 0.],-0.049693886190652854,-0.009566545486450195,-0.38930472731590277,[0. 0. 0. 0. 0. 0. 0. 0. 0.],0.19648316502571106,0.5154662728309632,10.133826255798342,[0. 0. 0. 0. 0. 0. 0. 0. 0.]
4.200000524520874,0.011840832419693472,0.0006454999675042928,0.8283660411834717,0.5600615143775941,[0. 0. 0. 0. 0. 0. 0. 0. 0.],-0.026749074459075928,-0.003205239772796631,-0.3806695640087128,[0. 0. 0. 0. 0. 0. 0. 0. 0.],0.41641822457313543,0.4100503027439118,9.58022975921631,[0. 0. 0. 0. 0. 0. 0. 0. 0.]
4.220000505447388,0.01162299793213606,0.00023586089082527908,0.8248299360275269,0.565260946750641,[0. 0. 0. 0. 0. 0. 0. 0. 0.],-0.044685613363981254,-0.02758801355957985,-0.3799051940441132,[0. 0. 0. 0. 0. 0. 0. 0. 0.],0.4559367299079895,0.48764920234680176,9.959672927856445,[0. 0. 0. 0. 0. 0. 0. 0. 0.]
4.240000486373901,0.011373721063137054,-0.0001779437443474308,0.8212855458259584,0.5704035758972168,[0. 0. 0. 0. 0. 0. 0. 0. 0.],-0.04383921250700951,-0.00040084123611450195,-0.37597715854644775,[0. 0. 0. 0. 0. 0. 0. 0. 0.],1.6797502040863037,0.3188493847846985,9.2919921875,[0. 0. 0. 0. 0. 0. 0. 0. 0.]
4.260000467300415,0.011172598227858543,-0.0006212384323589505,0.8177408576011659,0.5754775404930116,[0. 0. 0. 0. 0. 0. 0. 0. 0.],-0.07501842081546783,-0.013254585675895216,-0.3703192472457886,[0. 0. 0. 0. 0. 0. 0. 0. 0.],-0.13331401348114014,0.7725968956947328,10.394577980041506,[0. 0. 0. 0. 0. 0. 0. 0. 0.]
4.280000448226929,0.010986165143549444,-0.0010881929192692041,0.8141912817955018,0.5804920792579652,[0. 0. 0. 0. 0. 0. 0. 0. 0.],-0.045838955789804466,-0.01699924655258656,-0.3663688898086548,[0. 0. 0. 0. 0. 0. 0. 0. 0.],0.5286859273910522,-0.07355744391679765,9.471288681030273,[0. 0. 0. 0. 0. 0. 0. 0. 0.]
4.300000429153442,0.010847187601029875,-0.001578528084792197,0.810638427734375,0.5854451060295106,[0. 0. 0. 0. 0. 0. 0. 0. 0.],-0.041680045425891876,-0.02057701908051968,-0.3592268228530884,[0. 0. 0. 0. 0. 0. 0. 0. 0.],0.3600632250308991,0.7164406776428223,10.265262603759766,[0. 0. 0. 0. 0. 0. 0. 0. 0.]
4.320001602172852,0.010717098601162435,-0.002050059847533703,0.8070980310440063,0.590317189693451,[0. 0. 0. 0. 0. 0. 0. 0. 0.],-0.05140156671404839,-0.012081863358616829,-0.35601264238357544,[0. 0. 0. 0. 0. 0. 0. 0. 0.],0.73590224981308,0.045318007469177246,9.219582557678224,[0. 0. 0. 0. 0. 0. 0. 0. 0.]
4.340001583099365,0.010633593425154686,-0.002479491289705038,0.803552508354187,0.5951343178749086,[0. 0. 0. 0. 0. 0. 0. 0. 0.],-0.0402107834815979,-0.03367960825562478,-0.34650862216949463,[0. 0. 0. 0. 0. 0. 0. 0. 0.],0.6101070642471313,0.42793309688568115,10.279956817626953,[0. 0. 0. 0. 0. 0. 0. 0. 0.]
4.360001564025879,0.01060305815190077,-0.002849149284884334,0.800020694732666,0.5998724699020386,[0. 0. 0. 0. 0. 0. 0. 0. 0.],-0.025949632748961452,-0.022607298567891124,-0.3399543762207031,[0. 0. 0. 0. 0. 0. 0. 0. 0.],1.7078641653060915,0.3375192880630493,9.294197082519531,[0. 0. 0. 0. 0. 0. 0. 0. 0.]
4.380001544952393,0.010540885850787163,-0.003182702930644155,0.7964956760406494,0.6045444607734681,[0. 0. 0. 0. 0. 0. 0. 0. 0.],-0.04299283400177956,-0.0034123659133911133,-0.336009293794632,[0. 0. 0. 0. 0. 0. 0. 0. 0.],0.24352678656578064,1.1204099655151367,10.469601631164553,[0. 0. 0. 0. 0. 0. 0. 0. 0.]
4.400001525878906,0.010480330325663091,-0.003483770182356239,0.7929857969284058,0.6091400384902954,[0. 0. 0. 0. 0. 0. 0. 0. 0.],-0.021063532680273056,-0.004721433389931918,-0.3298111259937287,[0. 0. 0. 0. 0. 0. 0. 0. 0.],0.6194645762443544,-0.1904553771018982,9.369904518127443,[0. 0. 0. 0. 0. 0. 0. 0. 0.]
4.42000150680542,0.010479575023055077,-0.0037086480297148228,0.7894775271415712,0.6136786937713623,[0. 0. 0. 0. 0. 0. 0. 0. 0.],-0.012633207254111769,-0.007368625141680241,-0.32501223683357244,[0. 0. 0. 0. 0. 0. 0. 0. 0.],0.49456939101219183,0.6794291138648988,10.221088409423828,[0. 0. 0. 0. 0. 0. 0. 0. 0.]
4.44000244140625,0.010425582528114319,-0.0038642329163849354,0.7859790921211244,0.6181530356407167,[0. 0. 0. 0. 0. 0. 0. 0. 0.],-0.010742247104644775,-0.006154179573059082,-0.31731429696083074,[0. 0. 0. 0. 0. 0. 0. 0. 0.],1.035980463027954,0.2066835016012192,9.353007316589357,[0. 0. 0. 0. 0. 0. 0. 0. 0.]
4.460002422332764,0.010368018411099912,-0.003953967709094287,0.7825480103492738,0.6224912405014038,[0. 0. 0. 0. 0. 0. 0. 0. 0.],-0.00451207160949707,-0.014880302362143995,-0.31325823068618774,[0. 0. 0. 0. 0. 0. 0. 0. 0.],0.32667014002799993,0.5673367381095887,10.364407539367678,[0. 0. 0. 0. 0. 0. 0. 0. 0.]
4.480002403259277,0.010260767303407194,-0.00399730633944273,0.7792058587074281,0.6266709566116333,[0. 0. 0. 0. 0. 0. 0. 0. 0.],-0.0024303793907165527,0.017855318263173107,-0.31142386794090277,[0. 0. 0. 0. 0. 0. 0. 0. 0.],1.616826891899109,0.231632798910141,9.513666152954102,[0. 0. 0. 0. 0. 0. 0. 0. 0.]
4.500002384185791,0.01014490891247988,-0.0039500691927969464,0.7758654952049256,0.6308045387268066,[0. 0. 0. 0. 0. 0. 0. 0. 0.],-0.01327395346015692,0.023367255926132202,-0.3075286448001862,[0. 0. 0. 0. 0. 0. 0. 0. 0.],0.4727568030357361,0.6883269548416138,10.58955478668213,[0. 0. 0. 0. 0. 0. 0. 0. 0.]
4.520002365112305,0.010013217106461525,-0.003876800881698728,0.7725193500518799,0.6349000930786133,[0. 0. 0. 0. 0. 0. 0. 0. 0.],-0.00887513253837824,0.001700967666693032,-0.30543655157089233,[0. 0. 0. 0. 0. 0. 0. 0. 0.],0.46901229023933416,-0.23508118093013766,9.711929321289062,[0. 0. 0. 0. 0. 0. 0. 0. 0.]
4.540003538131714,0.0098620867356658,-0.0037091441918164496,0.769165337085724,0.6389623284339906,[0. 0. 0. 0. 0. 0. 0. 0. 0.],0.015913290902972225,0.01436121016740799,-0.3011214435100556,[0. 0. 0. 0. 0. 0. 0. 0. 0.],0.0693671703338623,0.7249398231506348,10.261791229248047,[0. 0. 0. 0. 0. 0. 0. 0. 0.]
4.5600035190582275,0.00969589501619339,-0.0035618762485682964,0.765807032585144,0.6429873704910278,[0. 0. 0. 0. 0. 0. 0. 0. 0.],0.01216009259223938,0.028004502877593044,-0.29878768324851995,[0. 0. 0. 0. 0. 0. 0. 0. 0.],0.23947829008102417,0.06624337285757066,9.359851837158203,[0. 0. 0. 0. 0. 0. 0. 0. 0.]
4.580003499984741,0.00953269097954035,-0.0034003891050815582,0.7624420523643495,0.6469771265983583,[0. 0. 0. 0. 0. 0. 0. 0. 0.],-0.0014804303646087646,0.008782745338976385,-0.30056309700012207,[0. 0. 0. 0. 0. 0. 0. 0. 0.],0.3284682929515839,0.4337257742881775,10.180005073547365,[0. 0. 0. 0. 0. 0. 0. 0. 0.]
4.600003480911255,0.009361831471323967,-0.003245744621381164,0.7590717673301698,0.6509311795234681,[0. 0. 0. 0. 0. 0. 0. 0. 0.],0.013626367785036566,0.014541299082338812,-0.2966076135635376,[0. 0. 0. 0. 0. 0. 0. 0. 0.],1.656090497970581,-0.07675727456808092,9.137168884277344,[0. 0. 0. 0. 0. 0. 0. 0. 0.]
4.6200034618377686,0.009174559265375137,-0.0031025465577840805,0.7556924819946289,0.6548547744750977,[0. 0. 0. 0. 0. 0. 0. 0. 0.],-0.0069469218142330655,0.03018305078148842,-0.29717239737510687,[0. 0. 0. 0. 0. 0. 0. 0. 0.],0.5323702692985536,0.7480122447013856,10.574441909790039,[0. 0. 0. 0. 0. 0. 0. 0. 0.]
4.640003442764282,0.008999847806990148,-0.00293326610699296,0.7522960305213929,0.6587568521499634,[0. 0. 0. 0. 0. 0. 0. 0. 0.],0.0037290160544216633,0.03117397986352444,-0.2930343449115754,[0. 0. 0. 0. 0. 0. 0. 0. 0.],0.6443740129470825,-0.4836945235729218,9.137088775634766,[0. 0. 0. 0. 0. 0. 0. 0. 0.]
4.660004377365112,0.00882168021053076,-0.0027894643135368824,0.7488723993301392,0.6626493334770204,[0. 0. 0. 0. 0. 0. 0. 0. 0.],-0.007629395462572575,0.01656785793602467,-0.2976030111312866,[0. 0. 0. 0. 0. 0. 0. 0. 0.],-0.23947547376155856,0.5475316643714906,10.497927665710451,[0. 0. 0. 0. 0. 0. 0. 0. 0.]
4.680004358291626,0.008668997325003149,-0.002658667042851448,0.7454268932342529,0.666525423526764,[0. 0. 0. 0. 0. 0. 0. 0. 0.],0.0055544087663292885,0.018567591905593872,-0.29237273335456854,[0. 0. 0. 0. 0. 0. 0. 0. 0.],0.9003558158874512,0.11238969117403032,9.195272445678711,[0. 0. 0. 0. 0. 0. 0. 0. 0.]
4.70000433921814,0.008500280790030958,-0.002569790929555893,0.7419606447219849,0.6703842878341675,[0. 0. 0. 0. 0. 0. 0. 0. 0.],-0.0084608793258667,0.0035211446229368453,-0.29843002557754517,[0. 0. 0. 0. 0. 0. 0. 0. 0.],0.1281205862760544,0.1114611029624939,10.137895584106445,[0. 0. 0. 0. 0. 0. 0. 0. 0.]
4.720004320144653,0.008359548635780813,-0.0024784603156149387,0.7386699318885804,0.6740112900733949,[0. 0. 0. 0. 0. 0. 0. 0. 0.],0.001255422946996987,0.002852827310562134,-0.30030757188796997,[0. 0. 0. 0. 0. 0. 0. 0. 0.],1.9772722721099854,0.01441175676882267,9.179247856140138,[0. 0. 0. 0. 0. 0. 0. 0. 0.]
4.740004301071167,0.008166362531483175,-0.0023424855899065737,0.7353537678718568,0.6776304244995117,[0. 0. 0. 0. 0. 0. 0. 0. 0.],-0.012008846737444403,0.03067031502723694,-0.2964571416378022,[0. 0. 0. 0. 0. 0. 0. 0. 0.],0.14540231227874756,0.585631251335144,10.627202987670898,[0. 0. 0. 0. 0. 0. 0. 0. 0.]
4.760004281997681,0.008009394630789757,-0.002279529115185142,0.7320192456245423,0.681233286857605,[0. 0. 0. 0. 0. 0. 0. 0. 0.],-0.026769939810037613,0.01104399748146534,-0.29846289753913885,[0. 0. 0. 0. 0. 0. 0. 0. 0.],-0.35373514890670776,-0.07306892424821855,9.499486923217773,[0. 0. 0. 0. 0. 0. 0. 0. 0.]
4.78000545501709,0.00789860263466835,-0.0021947456989437346,0.7286615371704102,0.6848249435424805,[0. 0. 0. 0. 0. 0. 0. 0. 0.],0.006353855598717929,0.013400616124272346,-0.3021285235881806,[0. 0. 0. 0. 0. 0. 0. 0. 0.],0.11085426807403564,0.1950807720422745,10.146952629089357,[0. 0. 0. 0. 0. 0. 0. 0. 0.]
4.8000054359436035,0.007774465251713992,-0.002121055033057928,0.725266993045807,0.6884207129478456,[0. 0. 0. 0. 0. 0. 0. 0. 0.],0.010506064631044866,0.010392816737294197,-0.30314481258392334,[0. 0. 0. 0. 0. 0. 0. 0. 0.],1.0780797004699707,0.1928170621395111,9.130333900451662,[0. 0. 0. 0. 0. 0. 0. 0. 0.]
4.820005416870117,0.0076459632255136975,-0.002091635717079044,0.7218319177627563,0.6920228600502015,[0. 0. 0. 0. 0. 0. 0. 0. 0.],-0.01803189516067505,0.00542551325634122,-0.305996835231781,[0. 0. 0. 0. 0. 0. 0. 0. 0.],0.04586459696292877,0.01402035728096962,10.269642829895021,[0. 0. 0. 0. 0. 0. 0. 0. 0.]
4.840005397796631,0.007538675796240569,-0.0020537725649774075,0.7183865308761597,0.6956003904342651,[0. 0. 0. 0. 0. 0. 0. 0. 0.],0.0026561319828033447,-0.00019818544387817383,-0.30411931872367864,[0. 0. 0. 0. 0. 0. 0. 0. 0.],1.8078515529632568,0.2959083914756775,9.490272521972656,[0. 0. 0. 0. 0. 0. 0. 0. 0.]
4.860006332397461,0.007383855991065502,-0.0020514435600489382,0.7149149775505067,0.6991696357727051,[0. 0. 0. 0. 0. 0. 0. 0. 0.],-0.027950845658779144,0.024653794243931774,-0.30507904291152954,[0. 0. 0. 0. 0. 0. 0. 0. 0.],0.06704080849885942,0.5417526960372925,10.67718505859375,[0. 0. 0. 0. 0. 0. 0. 0. 0.]
4.880006313323975,0.007277756463736297,-0.0020686697680503134,0.7114322185516357,0.702714204788208,[0. 0. 0. 0. 0. 0. 0. 0. 0.],-0.0296175479888916,-0.0009357929811812938,-0.30646774172782904,[0. 0. 0. 0. 0. 0. 0. 0. 0.],0.6527589559555054,-0.08684778958559038,9.22061538696289,[0. 0. 0. 0. 0. 0. 0. 0. 0.]
4.900006294250488,0.007255631498992443,-0.0021257498301565647,0.7079395055770874,0.7062327861785889,[0. 0. 0. 0. 0. 0. 0. 0. 0.],0.0025294723454862837,-0.009754300117492676,-0.3032714426517487,[0. 0. 0. 0. 0. 0. 0. 0. 0.],0.32481673359870916,0.4911668002605439,10.183395385742188,[0. 0. 0. 0. 0. 0. 0. 0. 0.]
4.920006275177002,0.0072068339213728905,-0.002251071156933904,0.704420030117035,0.7097433209419252,[0. 0. 0. 0. 0. 0. 0. 0. 0.],-0.02743005938827992,-0.013747812248766424,-0.3053411841392517,[0. 0. 0. 0. 0. 0. 0. 0. 0.],0.5982464551925659,0.2886338233947754,9.377787590026857,[0. 0. 0. 0. 0. 0. 0. 0. 0.]
4.940006256103516,0.007217151578515769,-0.0023658277932554488,0.700884521007538,0.7132343649864198,[0. 0. 0. 0. 0. 0. 0. 0. 0.],0.0032089650630950928,-0.01605152897536755,-0.30177825689315796,[0. 0. 0. 0. 0. 0. 0. 0. 0.],0.16756983101367953,0.5434707999229432,10.446012496948242,[0. 0. 0. 0. 0. 0. 0. 0. 0.]
4.959997177124023,0.007233905605971813,-0.0025601314846426253,0.6974331140518188,0.7166090607643129,[0. 0. 0. 0. 0. 0. 0. 0. 0.],-0.01154392957687378,-0.01915991492569447,-0.3030389845371247,[0. 0. 0. 0. 0. 0. 0. 0. 0.],0.997079908847809,0.0907556936144829,9.17620849609375,[0. 0. 0. 0. 0. 0. 0. 0. 0.]
4.979998350143433,0.007238400634378196,-0.0026976685039699078,0.6940496563911439,0.7198857665061952,[0. 0. 0. 0. 0. 0. 0. 0. 0.],-0.014035404659807684,-0.0047907233238220215,-0.30584040284156805,[0. 0. 0. 0. 0. 0. 0. 0. 0.],0.5250723361968994,0.4391803443431855,10.383113861083984,[0. 0. 0. 0. 0. 0. 0. 0. 0.]
4.999998331069946,0.007261548191308975,-0.002929782960563898,0.6906359195709229,0.7231600880622865,[0. 0. 0. 0. 0. 0. 0. 0. 0.],-0.02383738942444325,-0.021716954186558727,-0.30945390462875366,[0. 0. 0. 0. 0. 0. 0. 0. 0.],0.6145912408828735,-0.18134246766567233,9.196094512939453,[0. 0. 0. 0. 0. 0. 0. 0. 0.]
5.01999831199646,0.007321033161133529,-0.003113847924396396,0.6872011423110962,0.7264238595962524,[0. 0. 0. 0. 0. 0. 0. 0. 0.],-0.0005170702934265137,-0.024011736735701564,-0.3086567521095276,[0. 0. 0. 0. 0. 0. 0. 0. 0.],-0.03197949379682541,0.038371019065380096,10.296751976013185,[0. 0. 0. 0. 0. 0. 0. 0. 0.]
5.039998292922974,0.0073593282140791425,-0.0033230059780180454,0.6837375164031982,0.729683518409729,[0. 0. 0. 0. 0. 0. 0. 0. 0.],-0.02660602703690529,-0.021563475951552395,-0.30813524127006536,[0. 0. 0. 0. 0. 0. 0. 0. 0.],0.37402594089508057,0.2555873095989228,9.308882713317873,[0. 0. 0. 0. 0. 0. 0. 0. 0.]
5.059998273849487,0.007453729864209891,-0.003571590408682823,0.6802549362182617,0.732928991317749,[0. 0. 0. 0. 0. 0. 0. 0. 0.],-0.013656916096806526,-0.038944188505411155,-0.3070265054702759,[0. 0. 0. 0. 0. 0. 0. 0. 0.],0.009157001972198486,0.07401441037654877,10.397936820983888,[0. 0. 0. 0. 0. 0. 0. 0. 0.]
5.079998254776001,0.007534111849963665,-0.0038517434149980545,0.6767473816871644,0.7361670136451722,[0. 0. 0. 0. 0. 0. 0. 0. 0.],-0.014148654416203499,-0.03265739232301712,-0.3119544088840485,[0. 0. 0. 0. 0. 0. 0. 0. 0.],1.0306003093719482,-0.0652764216065407,9.160479545593263,[0. 0. 0. 0. 0. 0. 0. 0. 0.]
5.099999189376831,0.007591555360704661,-0.004104403778910637,0.673231065273285,0.7393818497657777,[0. 0. 0. 0. 0. 0. 0. 0. 0.],-0.026309492066502575,-0.0157773494720459,-0.31111392378807073,[0. 0. 0. 0. 0. 0. 0. 0. 0.],0.6471022963523866,0.4635768830776215,10.61513900756836,[0. 0. 0. 0. 0. 0. 0. 0. 0.]
5.119999170303345,0.007628157269209624,-0.0043202326633036145,0.6696889400482178,0.742590069770813,[0. 0. 0. 0. 0. 0. 0. 0. 0.],-0.024577978998422623,-0.026516621932387355,-0.31248185038566595,[0. 0. 0. 0. 0. 0. 0. 0. 0.],0.684606969356537,0.07358571887016296,9.31795406341553,[0. 0. 0. 0. 0. 0. 0. 0. 0.]
5.1399993896484375,0.007704822346568108,-0.004510522820055485,0.666134536266327,0.7457784414291382,[0. 0. 0. 0. 0. 0. 0. 0. 0.],0.0036887826863676314,-0.02374202013015747,-0.3081143200397492,[0. 0. 0. 0. 0. 0. 0. 0. 0.],0.060822442173957825,0.23321953415870667,10.28737545013428,[0. 0. 0. 0. 0. 0. 0. 0. 0.]
5.159999370574951,0.007769424468278885,-0.004667156841605903,0.6625399589538574,0.7489718794822694,[0. 0. 0. 0. 0. 0. 0. 0. 0.],-0.002631545066833496,-0.013990702107548714,-0.3130525648593903,[0. 0. 0. 0. 0. 0. 0. 0. 0.],0.654881775379181,0.08869000524282457,9.294154167175295,[0. 0. 0. 0. 0. 0. 0. 0. 0.]
5.179999351501465,0.007822714745998383,-0.004806803073734046,0.6589237451553345,0.7521536350250244,[0. 0. 0. 0. 0. 0. 0. 0. 0.],0.0035688283387571578,-0.016260892152786255,-0.3154329955577851,[0. 0. 0. 0. 0. 0. 0. 0. 0.],0.6090042591094971,-0.11375417560338975,9.804105758666992,[0. 0. 0. 0. 0. 0. 0. 0. 0.]
5.200000286102295,0.007867601700127127,-0.004944181069731712,0.6548308730125428,0.7557182312011719,[0. 0. 0. 0. 0. 0. 0. 0. 0.],-0.006113946437835693,-0.02003610320389271,-0.31608048081398016,[0. 0. 0. 0. 0. 0. 0. 0. 0.],1.641515135765076,0.018105044960975647,9.385980606079102,[0. 0. 0. 0. 0. 0. 0. 0. 0.]
5.220000267028809,0.007866199128329756,-0.0049963900819420815,0.6514819860458374,0.7586069703102113,[0. 0. 0. 0. 0. 0. 0. 0. 0.],-0.020842254161834717,0.004821271169930697,-0.31911730766296387,[0. 0. 0. 0. 0. 0. 0. 0. 0.],0.6138640642166138,0.51778382062912,10.579143524169922,[0. 0. 0. 0. 0. 0. 0. 0. 0.]
5.240000247955322,0.007863849401473999,-0.00507820537313819,0.6480967402458192,0.7615005373954774,[0. 0. 0. 0. 0. 0. 0. 0. 0.],-0.01847893558442593,-0.012536349706351759,-0.3162265419960022,[0. 0. 0. 0. 0. 0. 0. 0. 0.],0.17311863601207736,-0.13915804028511047,9.518634796142578,[0. 0. 0. 0. 0. 0. 0. 0. 0.]
5.260000228881836,0.00789835210889578,-0.005169586744159461,0.6446824669837953,0.7643919587135316,[0. 0. 0. 0. 0. 0. 0. 0. 0.],0.008281320333480835,-0.008888545446097853,-0.32603001594543457,[0. 0. 0. 0. 0. 0. 0. 0. 0.],0.10590218007564545,-0.7570273876190186,9.62947750091553,[0. 0. 0. 0. 0. 0. 0. 0. 0.]
5.28000020980835,0.00793897081166506,-0.005213220138102771,0.6412731409072876,0.7672539353370668,[0. 0. 0. 0. 0. 0. 0. 0. 0.],-0.010050833225250244,-0.013414026238024237,-0.32106789946556097,[0. 0. 0. 0. 0. 0. 0. 0. 0.],2.1986629962921147,0.26554763317108154,9.625177383422852,[0. 0. 0. 0. 0. 0. 0. 0. 0.]
5.300000190734863,0.0079078059643507,-0.005291288252919913,0.6378169655799867,0.7701293230056763,[0. 0. 0. 0. 0. 0. 0. 0. 0.],-0.024113059043884277,-0.019580127671360973,-0.3231450915336609,[0. 0. 0. 0. 0. 0. 0. 0. 0.],1.1820882558822634,-0.18774491548538208,9.743382453918459,[0. 0. 0. 0. 0. 0. 0. 0. 0.]
5.320001125335693,0.007806691341102123,-0.005395916290581226,0.634322226047516,0.7730109095573426,[0. 0. 0. 0. 0. 0. 0. 0. 0.],-0.044146180152893066,-0.018005073070526123,-0.3304347693920136,[0. 0. 0. 0. 0. 0. 0. 0. 0.],1.0795046091079714,-0.3652064502239228,9.561092376708984,[0. 0. 0. 0. 0. 0. 0. 0. 0.]
5.340001106262207,0.007725381292402744,-0.005495584569871426,0.6307751536369325,0.7759076952934266,[0. 0. 0. 0. 0. 0. 0. 0. 0.],-0.04041790962219238,0.014159829355776312,-0.33254921436309814,[0. 0. 0. 0. 0. 0. 0. 0. 0.],0.5276690125465394,0.615864932537079,10.421453475952148,[0. 0. 0. 0. 0. 0. 0. 0. 0.]
5.360001087188721,0.007541057653725147,-0.00571371102705598,0.6271536350250244,0.7788386344909668,[0. 0. 0. 0. 0. 0. 0. 0. 0.],-0.06051659956574441,-0.0004649162292480469,-0.3396958112716675,[0. 0. 0. 0. 0. 0. 0. 0. 0.],-0.18925087153911593,-0.6400654315948486,9.698317527770998,[0. 0. 0. 0. 0. 0. 0. 0. 0.]
5.3800013065338135,0.0073867770843207845,-0.0059174904599785805,0.6234608292579652,0.7817978262901307,[0. 0. 0. 0. 0. 0. 0. 0. 0.],-0.011941791512072088,-0.002652406692504883,-0.3487676680088044,[0. 0. 0. 0. 0. 0. 0. 0. 0.],0.8390812277793885,0.16944541037082675,10.086963653564453,[0. 0. 0. 0. 0. 0. 0. 0. 0.]
5.400001287460327,0.0071310680359601974,-0.006188195198774338,0.6196665167808534,0.784808874130249,[0. 0. 0. 0. 0. 0. 0. 0. 0.],-0.03440977260470391,-0.013160708360373976,-0.36360180377960205,[0. 0. 0. 0. 0. 0. 0. 0. 0.],0.47444814443588257,-0.0992525964975357,9.43345832824707,[0. 0. 0. 0. 0. 0. 0. 0. 0.]
5.420001268386841,0.006838748697191478,-0.006448919884860516,0.6157842278480531,0.7878586053848267,[0. 0. 0. 0. 0. 0. 0. 0. 0.],-0.05255937576293945,-0.029417874291539196,-0.37575066089630127,[0. 0. 0. 0. 0. 0. 0. 0. 0.],0.5171935558319092,-0.46027255058288574,9.904023170471193,[0. 0. 0. 0. 0. 0. 0. 0. 0.]
5.440002202987671,0.006601500324904919,-0.006651338189840317,0.611828088760376,0.7909352183341981,[0. 0. 0. 0. 0. 0. 0. 0. 0.],-0.017054378986358643,-0.009526313282549383,-0.3802687227725983,[0. 0. 0. 0. 0. 0. 0. 0. 0.],1.830006003379822,-0.03952708840370178,9.422828674316406,[0. 0. 0. 0. 0. 0. 0. 0. 0.]
5.460002183914185,0.006320232991129161,-0.006825528573244811,0.6083771586418153,0.7935935854911805,[0. 0. 0. 0. 0. 0. 0. 0. 0.],-0.05286782607436181,0.019881870597600937,-0.3944367468357087,[0. 0. 0. 0. 0. 0. 0. 0. 0.],1.090839982032776,-0.17244876921176913,9.58758068084717,[0. 0. 0. 0. 0. 0. 0. 0. 0.]
5.480002164840698,0.00598722929134965,-0.00698744459077716,0.6044294834136963,0.7966055870056152,[0. 0. 0. 0. 0. 0. 0. 0. 0.],-0.05107075721025467,0.005451589822769165,-0.4062906205654145,[0. 0. 0. 0. 0. 0. 0. 0. 0.],0.6850756406784058,-0.06666025519371033,9.919619560241701,[0. 0. 0. 0. 0. 0. 0. 0. 0.]
5.500002145767212,0.005682662595063449,-0.00709880143404007,0.6003387570381166,0.7996940016746522,[0. 0. 0. 0. 0. 0. 0. 0. 0.],-0.029052799567580227,0.014488400891423225,-0.4225925505161286,[0. 0. 0. 0. 0. 0. 0. 0. 0.],0.4149140417575837,-1.2253711223602295,9.57028579711914,[0. 0. 0. 0. 0. 0. 0. 0. 0.]
5.520002126693726,0.005317490082234145,-0.007215812336653472,0.5961092114448548,0.8028535842895508,[0. 0. 0. 0. 0. 0. 0. 0. 0.],-0.0476449839770794,-0.00441819429397583,-0.4392475485801697,[0. 0. 0. 0. 0. 0. 0. 0. 0.],1.3940650224685671,-0.44957631826400757,9.966495513916016,[0. 0. 0. 0. 0. 0. 0. 0. 0.]
5.540003061294556,0.004977206233888865,-0.007339783012866974,0.5917778015136719,0.8060526847839355,[0. 0. 0. 0. 0. 0. 0. 0. 0.],-0.034141305834054954,0.00520587433129549,-0.4477603733539582,[0. 0. 0. 0. 0. 0. 0. 0. 0.],1.6731617450714111,-1.1030330657958984,9.675398826599123,[0. 0. 0. 0. 0. 0. 0. 0. 0.]
5.560003042221069,0.004591268487274647,-0.0075195743702352056,0.5873191952705384,0.8093076944351196,[0. 0. 0. 0. 0. 0. 0. 0. 0.],-0.0481233075261116,0.0023804609663784504,-0.4606620371341706,[0. 0. 0. 0. 0. 0. 0. 0. 0.],-0.2328409403562546,-1.0663368701934814,10.133852958679201,[0. 0. 0. 0. 0. 0. 0. 0. 0.]
5.580003023147583,0.004181520082056522,-0.0077348179183900365,0.5827742218971254,0.8125868439674379,[0. 0. 0. 0. 0. 0. 0. 0. 0.],-0.06417481601238251,-0.032562021166086204,-0.4695087671279907,[0. 0. 0. 0. 0. 0. 0. 0. 0.],1.3772313594818115,-0.43920460343360906,9.562214851379396,[0. 0. 0. 0. 0. 0. 0. 0. 0.]
5.600003242492676,0.0038533757906407122,-0.008010556921362877,0.5781754851341249,0.8158642053604126,[0. 0. 0. 0. 0. 0. 0. 0. 0.],-0.03539473190903664,0.001751631498336792,-0.4730641841888428,[0. 0. 0. 0. 0. 0. 0. 0. 0.],2.124966382980347,-1.255470156669617,9.591954231262209,[0. 0. 0. 0. 0. 0. 0. 0. 0.]
5.6200032234191895,0.003411761717870832,-0.008342256769537926,0.5734834671020508,0.8191677927970887,[0. 0. 0. 0. 0. 0. 0. 0. 0.],-0.07849186658859253,0.02050474472343922,-0.4840776324272156,[0. 0. 0. 0. 0. 0. 0. 0. 0.],-0.3160389363765717,0.019127903506159786,10.046732902526857,[0. 0. 0. 0. 0. 0. 0. 0. 0.]
5.640003204345703,0.003042666474357248,-0.008705269545316696,0.5687121152877808,0.8224853277206421,[0. 0. 0. 0. 0. 0. 0. 0. 0.],-0.05023033544421197,-0.016607346013188366,-0.49177563190460205,[0. 0. 0. 0. 0. 0. 0. 0. 0.],2.102519273757935,-0.7037447094917298,9.603229522705078,[0. 0. 0. 0. 0. 0. 0. 0. 0.]
5.660004138946533,0.0026559275574982166,-0.0090626310557127,0.5638155341148378,0.825847089290619,[0. 0. 0. 0. 0. 0. 0. 0. 0.],-0.08155255019664764,0.02494529075920582,-0.4999086260795593,[0. 0. 0. 0. 0. 0. 0. 0. 0.],1.2016332149505615,-1.2319602966308594,9.719649314880373,[0. 0. 0. 0. 0. 0. 0. 0. 0.]
5.680004119873047,0.0022516190074384212,-0.009425099939107895,0.5588088035583496,0.8292402029037476,[0. 0. 0. 0. 0. 0. 0. 0. 0.],-0.07043779641389848,-0.015452506020665169,-0.5164549350738525,[0. 0. 0. 0. 0. 0. 0. 0. 0.],-0.3617057204246521,-0.8235568404197694,10.1343994140625,[0. 0. 0. 0. 0. 0. 0. 0. 0.]
5.7000041007995605,0.00200438080355525,-0.009815626777708532,0.5537327527999878,0.832634449005127,[0. 0. 0. 0. 0. 0. 0. 0. 0.],-0.052553426474332816,-0.05296618491411209,-0.5239145159721376,[0. 0. 0. 0. 0. 0. 0. 0. 0.],2.060915470123291,-1.361410140991211,10.127570152282717,[0. 0. 0. 0. 0. 0. 0. 0. 0.]
5.720004081726074,0.001685027964413166,-0.010106870904564857,0.5490615367889404,0.8357198238372803,[0. 0. 0. 0. 0. 0. 0. 0. 0.],-0.028410555794835094,0.015624615363776686,-0.5316064357757568,[0. 0. 0. 0. 0. 0. 0. 0. 0.],1.3895472288131716,-0.6501581072807313,9.416516304016115,[0. 0. 0. 0. 0. 0. 0. 0. 0.]
5.740004062652588,0.0012992074480280282,-0.01045319251716137,0.5439727306365967,0.8390371203422547,[0. 0. 0. 0. 0. 0. 0. 0. 0.],-0.05343408510088921,-0.020225349813699722,-0.5500765442848207,[0. 0. 0. 0. 0. 0. 0. 0. 0.],-0.12387852370738983,0.04463227838277817,11.213123321533203,[0. 0. 0. 0. 0. 0. 0. 0. 0.]
5.760004043579102,0.0009904929902404547,-0.010795308277010918,0.5387547016143799,0.8423933982849121,[0. 0. 0. 0. 0. 0. 0. 0. 0.],-0.04582256078720093,-0.014509263448417188,-0.5629495978355409,[0. 0. 0. 0. 0. 0. 0. 0. 0.],0.9257321357727051,-1.477384328842163,9.065925598144531,[0. 0. 0. 0. 0. 0. 0. 0. 0.]
5.780004978179932,0.0007311219233088196,-0.011088599450886251,0.5334572792053223,0.8457543253898622,[0. 0. 0. 0. 0. 0. 0. 0. 0.],-0.03401488438248635,-0.002396106719970703,-0.5658642649650575,[0. 0. 0. 0. 0. 0. 0. 0. 0.],0.7050310373306274,-0.21035550534725192,10.590054512023928,[0. 0. 0. 0. 0. 0. 0. 0. 0.]
5.800004959106445,0.0005182831664569677,-0.011537336744368078,0.5280923843383789,0.849108636379242,[0. 0. 0. 0. 0. 0. 0. 0. 0.],-0.036676228046417236,-0.03811568021774292,-0.5709097981452943,[0. 0. 0. 0. 0. 0. 0. 0. 0.],1.031977653503418,-0.3499301075935364,9.586871147155763,[0. 0. 0. 0. 0. 0. 0. 0. 0.]
5.820004940032959,0.0002701618941500783,-0.012047472409904005,0.522657334804535,0.8524578809738159,[0. 0. 0. 0. 0. 0. 0. 0. 0.],-0.04367531090974808,-0.05270094797015191,-0.5793452262878418,[0. 0. 0. 0. 0. 0. 0. 0. 0.],0.7336635589599609,-0.2141266167163849,9.965777397155763,[0. 0. 0. 0. 0. 0. 0. 0. 0.]
5.840005159378052,7.20616226317361e-05,-0.012630483135581017,0.5171386599540712,0.8558088541030884,[0. 0. 0. 0. 0. 0. 0. 0. 0.],-0.07135571539402008,-0.04318655654788018,-0.5858601927757264,[0. 0. 0. 0. 0. 0. 0. 0. 0.],1.5487964153289795,-0.04330891743302346,9.839073181152344,[0. 0. 0. 0. 0. 0. 0. 0. 0.]
5.860006093978882,-0.00010453695722389966,-0.013214562088251114,0.5115001797676088,0.8591820597648622,[0. 0. 0. 0. 0. 0. 0. 0. 0.],-0.06917332112789154,-0.006218747701495887,-0.5956100225448608,[0. 0. 0. 0. 0. 0. 0. 0. 0.],0.9285710453987123,-0.41569703817367554,10.275172233581545,[0. 0. 0. 0. 0. 0. 0. 0. 0.]
5.8800060749053955,-0.00021580734755843878,-0.013762311078608038,0.5057668685913086,0.8625606298446655,[0. 0. 0. 0. 0. 0. 0. 0. 0.],-0.05873740464448929,-0.035834312438964844,-0.6089778542518617,[0. 0. 0. 0. 0. 0. 0. 0. 0.],0.9659861326217651,-1.1410540342330935,9.720930099487305,[0. 0. 0. 0. 0. 0. 0. 0. 0.]
5.900006055831909,-0.0002802402595989406,-0.01418148633092642,0.4999167621135712,0.865957498550415,[0. 0. 0. 0. 0. 0. 0. 0. 0.],-0.01401752419769764,-0.025075679644942287,-0.6175757646560669,[0. 0. 0. 0. 0. 0. 0. 0. 0.],1.0779811143875124,-1.0806350708007812,9.424462318420412,[0. 0. 0. 0. 0. 0. 0. 0. 0.]
5.920006036758423,-0.00033055886160582304,-0.014520430937409401,0.49396356940269476,0.8693614602088929,[0. 0. 0. 0. 0. 0. 0. 0. 0.],-0.022731725126504898,-0.030590599402785305,-0.6267802119255067,[0. 0. 0. 0. 0. 0. 0. 0. 0.],1.6617841720581055,-0.7479472756385804,9.372207641601562,[0. 0. 0. 0. 0. 0. 0. 0. 0.]
5.9400060176849365,-0.00026023417012766004,-0.014785783365368843,0.4879156053066254,0.8727658390998841,[0. 0. 0. 0. 0. 0. 0. 0. 0.],-0.013825300149619581,-0.0365719273686409,-0.6320090889930726,[0. 0. 0. 0. 0. 0. 0. 0. 0.],1.061294198036194,-0.45669490098953247,9.281044960021974,[0. 0. 0. 0. 0. 0. 0. 0. 0.]
5.959996938705444,-0.0002485845470800996,-0.015007710084319115,0.481631487607956,0.8762456178665161,[0. 0. 0. 0. 0. 0. 0. 0. 0.],-0.03963560611009598,-0.043405599892139435,-0.6502719521522523,[0. 0. 0. 0. 0. 0. 0. 0. 0.],-0.23089420795440674,-0.7474051713943481,10.255668640136719,[0. 0. 0. 0. 0. 0. 0. 0. 0.]
5.979997873306274,-9.570017573423684e-05,-0.015109227038919927,0.4757056534290314,0.8794751763343812,[0. 0. 0. 0. 0. 0. 0. 0. 0.],0.02283230796456337,-0.004641713108867408,-0.656238317489624,[0. 0. 0. 0. 0. 0. 0. 0. 0.],1.5150238275527956,-0.18630599975585938,9.825364112854006,[0. 0. 0. 0. 0. 0. 0. 0. 0.]
5.999997854232788,-3.288322659500409e-06,-0.015178163535892965,0.46968445181846624,0.8827041387557983,[0. 0. 0. 0. 0. 0. 0. 0. 0.],-0.013113024644553663,0.0075764963403344154,-0.6609678268432617,[0. 0. 0. 0. 0. 0. 0. 0. 0.],0.38956665992736816,-0.0010169872548431158,10.663540840148928,[0. 0. 0. 0. 0. 0. 0. 0. 0.]
6.019998073577881,0.00016344749019481242,-0.015156011097133161,0.4635801315307617,0.8859253525733949,[0. 0. 0. 0. 0. 0. 0. 0. 0.],0.011094660498201849,-0.0009119511814787984,-0.6698713898658754,[0. 0. 0. 0. 0. 0. 0. 0. 0.],1.8087897300720215,-1.0273126363754275,8.933902740478516,[0. 0. 0. 0. 0. 0. 0. 0. 0.]
6.0399980545043945,0.00031122099608182907,-0.015064593404531479,0.4573983252048493,0.8891344666481019,[0. 0. 0. 0. 0. 0. 0. 0. 0.],-0.009372831322252752,0.01657754369080067,-0.6718815565109253,[0. 0. 0. 0. 0. 0. 0. 0. 0.],-0.15010340511798861,-0.004787469282746315,10.419959068298342,[0. 0. 0. 0. 0. 0. 0. 0. 0.]
6.059998035430908,0.0005283954669721426,-0.014925865456461906,0.4511648416519165,0.8923158645629883,[0. 0. 0. 0. 0. 0. 0. 0. 0.],0.05084500461816788,0.008974225260317327,-0.6757825613021851,[0. 0. 0. 0. 0. 0. 0. 0. 0.],1.8382757902145388,-0.43541812896728516,8.62837028503418,[0. 0. 0. 0. 0. 0. 0. 0. 0.]
6.079998016357422,0.0006647854461334647,-0.014754699543118477,0.4448435306549072,0.8954867124557495,[0. 0. 0. 0. 0. 0. 0. 0. 0.],-0.023868683725595474,0.005649776663631202,-0.6915898919105531,[0. 0. 0. 0. 0. 0. 0. 0. 0.],0.915077030658722,-0.6740615963935853,9.79418468475342,[0. 0. 0. 0. 0. 0. 0. 0. 0.]
6.099998950958252,0.0008069814066402615,-0.014487829990684988,0.43842449784278875,0.898651123046875,[0. 0. 0. 0. 0. 0. 0. 0. 0.],0.051031280308961875,0.02747252956032753,-0.694801151752472,[0. 0. 0. 0. 0. 0. 0. 0. 0.],2.317061424255371,-0.49537014961242676,8.572420120239258,[0. 0. 0. 0. 0. 0. 0. 0. 0.]
6.119998931884766,0.0008960594423115253,-0.014189151115715505,0.43192511796951294,0.9017978310585023,[0. 0. 0. 0. 0. 0. 0. 0. 0.],-0.013892355374991896,0.03660247847437859,-0.7016525268554688,[0. 0. 0. 0. 0. 0. 0. 0. 0.],1.2823805809020996,0.6923717260360718,10.472964286804201,[0. 0. 0. 0. 0. 0. 0. 0. 0.]
6.139998912811279,0.0009341391851194204,-0.013884120620787145,0.42534843087196356,0.9049231410026551,[0. 0. 0. 0. 0. 0. 0. 0. 0.],-0.0014677644940093162,0.042510777711868286,-0.7068352103233339,[0. 0. 0. 0. 0. 0. 0. 0. 0.],1.6818883419036865,-0.7766694426536561,9.905393600463867,[0. 0. 0. 0. 0. 0. 0. 0. 0.]
6.159998893737793,0.0009359063697047533,-0.013541799038648605,0.41873094439506536,0.9080092906951904,[0. 0. 0. 0. 0. 0. 0. 0. 0.],0.045406069606542594,0.04773661494255066,-0.7034687995910645,[0. 0. 0. 0. 0. 0. 0. 0. 0.],1.0085366964340212,-0.19054079055786133,9.601878166198732,[0. 0. 0. 0. 0. 0. 0. 0. 0.]
6.179998874664307,0.0009101609466597438,-0.013262125663459303,0.41205716133117676,0.9110614061355591,[0. 0. 0. 0. 0. 0. 0. 0. 0.],-0.00037103897193446755,0.047069054096937187,-0.7128582000732422,[0. 0. 0. 0. 0. 0. 0. 0. 0.],1.524177074432373,0.11044995486736298,9.567440032958984,[0. 0. 0. 0. 0. 0. 0. 0. 0.]
6.199999809265137,0.0008415092597715558,-0.013020570389926435,0.40532121062278753,0.9140814542770386,[0. 0. 0. 0. 0. 0. 0. 0. 0.],0.003252178430557251,0.03391429781913757,-0.7125839591026307,[0. 0. 0. 0. 0. 0. 0. 0. 0.],0.420928418636322,0.34274816513061523,9.954723358154297,[0. 0. 0. 0. 0. 0. 0. 0. 0.]
6.21999979019165,0.0007560422527603806,-0.012772567570209503,0.39892083406448364,0.9168963432312012,[0. 0. 0. 0. 0. 0. 0. 0. 0.],0.003386289346963167,0.022209437564015392,-0.7195398807525635,[0. 0. 0. 0. 0. 0. 0. 0. 0.],1.085099458694458,-0.1945389658212662,10.041678428649904,[0. 0. 0. 0. 0. 0. 0. 0. 0.]
6.239999771118164,0.0007190137985162438,-0.012470207177102568,0.39249435067176824,0.919669806957245,[0. 0. 0. 0. 0. 0. 0. 0. 0.],-0.0053822994232177734,0.05325750634074212,-0.7220254540443422,[0. 0. 0. 0. 0. 0. 0. 0. 0.],2.452576875686646,-0.3251473903656006,9.535778045654297,[0. 0. 0. 0. 0. 0. 0. 0. 0.]
6.259999990463257,0.0005944097647443414,-0.012089565396308899,0.3860671222209931,0.922391414642334,[0. 0. 0. 0. 0. 0. 0. 0. 0.],0.003162771696224809,0.055571652948856354,-0.7140414118766786,[0. 0. 0. 0. 0. 0. 0. 0. 0.],0.6433926224708558,1.1329840421676638,10.531910896301271,[0. 0. 0. 0. 0. 0. 0. 0. 0.]
6.2799999713897705,0.0005105946911498904,-0.011696772649884224,0.37965276837348944,0.9250552654266357,[0. 0. 0. 0. 0. 0. 0. 0. 0.],-0.019487740471959118,0.03625080361962319,-0.7110909223556519,[0. 0. 0. 0. 0. 0. 0. 0. 0.],0.9035156965255737,-0.5818154811859131,9.529548645019531,[0. 0. 0. 0. 0. 0. 0. 0. 0.]
6.299999952316284,0.0005248797242529691,-0.011254314333200455,0.37327238917350775,0.9276538491249086,[0. 0. 0. 0. 0. 0. 0. 0. 0.],0.006534905172884464,0.03888682648539544,-0.7014931440353394,[0. 0. 0. 0. 0. 0. 0. 0. 0.],0.1988033950328827,1.4234139919281006,11.011454582214357,[0. 0. 0. 0. 0. 0. 0. 0. 0.]
6.320000886917114,0.0005444407579489053,-0.010827670805156233,0.36692482233047485,0.9301875233650209,[0. 0. 0. 0. 0. 0. 0. 0. 0.],0.033755611628294,0.04447103291749954,-0.6981284618377686,[0. 0. 0. 0. 0. 0. 0. 0. 0.],-0.09466901421546936,-0.25227928161621094,9.478078842163086,[0. 0. 0. 0. 0. 0. 0. 0. 0.]
6.340000867843628,0.0006358170649036765,-0.010402344167232513,0.36066144704818726,0.932638704776764,[0. 0. 0. 0. 0. 0. 0. 0. 0.],0.01263693254441023,0.01740381494164467,-0.6908329129219056,[0. 0. 0. 0. 0. 0. 0. 0. 0.],0.8701615929603578,0.750149130821228,10.142221450805664,[0. 0. 0. 0. 0. 0. 0. 0. 0.]
6.360000848770142,0.0006267921417020262,-0.010006594471633436,0.35445025563240057,0.9350212812423706,[0. 0. 0. 0. 0. 0. 0. 0. 0.],0.012575836852192879,0.03229454159736633,-0.682146966457367,[0. 0. 0. 0. 0. 0. 0. 0. 0.],1.4506942033767702,0.25131964683532715,9.33033561706543,[0. 0. 0. 0. 0. 0. 0. 0. 0.]
6.380000829696655,0.0006295312196016312,-0.009717397391796112,0.34828853607177734,0.9373368620872499,[0. 0. 0. 0. 0. 0. 0. 0. 0.],-0.004373491741716862,0.034338992089033134,-0.6773725748062134,[0. 0. 0. 0. 0. 0. 0. 0. 0.],0.716003715991974,1.1249846220016482,10.208513259887695,[0. 0. 0. 0. 0. 0. 0. 0. 0.]
6.400000810623169,0.0005317414761520923,-0.009565366432070732,0.3421443700790405,0.939598560333252,[0. 0. 0. 0. 0. 0. 0. 0. 0.],-0.024709109216928482,0.017469378188252453,-0.6742835640907289,[0. 0. 0. 0. 0. 0. 0. 0. 0.],0.07344679534435272,0.4908372163772583,9.661301612854006,[0. 0. 0. 0. 0. 0. 0. 0. 0.]
6.420000791549683,0.0004166214202996344,-0.009503764100372793,0.3360299766063691,0.9418032169342041,[0. 0. 0. 0. 0. 0. 0. 0. 0.],-0.001645088428631425,0.014524909667670729,-0.6662219762802124,[0. 0. 0. 0. 0. 0. 0. 0. 0.],0.1829860508441925,0.41475576162338257,9.876997947692873,[0. 0. 0. 0. 0. 0. 0. 0. 0.]
6.440001964569092,0.00020395763567648828,-0.009543665684759619,0.3299388885498047,0.9439539313316346,[0. 0. 0. 0. 0. 0. 0. 0. 0.],-0.03697574883699417,0.0022538010962307453,-0.666384518146515,[0. 0. 0. 0. 0. 0. 0. 0. 0.],0.6164489388465882,0.37202700972557073,9.582436561584474,[0. 0. 0. 0. 0. 0. 0. 0. 0.]
6.460001707077026,-6.068586662877351e-05,-0.009645603597164154,0.32404565811157227,0.9459928274154663,[0. 0. 0. 0. 0. 0. 0. 0. 0.],-0.029365722090005875,-0.015142562799155714,-0.6554872989654541,[0. 0. 0. 0. 0. 0. 0. 0. 0.],0.7305450439453125,0.4564973413944245,9.851746559143068,[0. 0. 0. 0. 0. 0. 0. 0. 0.]
6.48000168800354,-0.0003859123680740595,-0.009882276877760887,0.3183328211307526,0.9479279518127441,[0. 0. 0. 0. 0. 0. 0. 0. 0.],-0.052019961178302765,-0.02617687545716763,-0.6511242985725404,[0. 0. 0. 0. 0. 0. 0. 0. 0.],1.2181260585784912,0.645271122455597,9.816482543945312,[0. 0. 0. 0. 0. 0. 0. 0. 0.]
6.500001907348633,-0.0008023151312954725,-0.010196471586823463,0.3126676976680756,0.9498080611228944,[0. 0. 0. 0. 0. 0. 0. 0. 0.],-0.056084997951984406,-0.0032916672062128787,-0.6463886499404907,[0. 0. 0. 0. 0. 0. 0. 0. 0.],0.7789729833602905,0.42534130811691284,9.643535614013672,[0. 0. 0. 0. 0. 0. 0. 0. 0.]
6.5200018882751465,-0.0012430137721821668,-0.01057455688714981,0.3070519864559174,0.9516334533691406,[0. 0. 0. 0. 0. 0. 0. 0. 0.],-0.08618088066577911,-0.02046823501586914,-0.6413118243217469,[0. 0. 0. 0. 0. 0. 0. 0. 0.],0.6975492238998413,0.8464649319648744,9.91786003112793,[0. 0. 0. 0. 0. 0. 0. 0. 0.]
6.540002822875977,-0.001705296221189201,-0.010967140085995199,0.30151197314262396,0.9533981084823608,[0. 0. 0. 0. 0. 0. 0. 0. 0.],-0.04340611770749093,-0.023695293813943863,-0.6288204789161683,[0. 0. 0. 0. 0. 0. 0. 0. 0.],0.6421355605125428,-0.046578984707593925,9.176403045654297,[0. 0. 0. 0. 0. 0. 0. 0. 0.]
6.56000280380249,-0.0021990675013512377,-0.011438786052167417,0.2960579693317414,0.9550991654396058,[0. 0. 0. 0. 0. 0. 0. 0. 0.],-0.06643386930227281,-0.0332072451710701,-0.6193788051605225,[0. 0. 0. 0. 0. 0. 0. 0. 0.],0.4688965082168579,0.5676449537277222,9.718449592590334,[0. 0. 0. 0. 0. 0. 0. 0. 0.]
6.580002784729004,-0.0026116957888007164,-0.01195127982646227,0.2907006442546845,0.956735908985138,[0. 0. 0. 0. 0. 0. 0. 0. 0.],-0.04923493415117264,-0.031615804880857475,-0.6071493625640869,[0. 0. 0. 0. 0. 0. 0. 0. 0.],1.1035070419311523,0.11568754166364671,9.287593841552734,[0. 0. 0. 0. 0. 0. 0. 0. 0.]
6.600002765655518,-0.0030021443963050842,-0.012454301118850708,0.2854240238666535,0.9583161473274232,[0. 0. 0. 0. 0. 0. 0. 0. 0.],-0.0459328405559063,-0.04521013423800469,-0.5938352346420288,[0. 0. 0. 0. 0. 0. 0. 0. 0.],1.2690775394439697,0.46275854110717773,9.863905906677248,[0. 0. 0. 0. 0. 0. 0. 0. 0.]
6.620002746582031,-0.0033275200985372066,-0.012908630073070526,0.280239999294281,0.9598379135131836,[0. 0. 0. 0. 0. 0. 0. 0. 0.],-0.04058928042650223,-0.021363800391554836,-0.5889208316802979,[0. 0. 0. 0. 0. 0. 0. 0. 0.],1.4526485204696657,0.08098851889371873,9.583474159240724,[0. 0. 0. 0. 0. 0. 0. 0. 0.]
6.640002727508545,-0.0036039261613041167,-0.013323945924639702,0.2751774787902832,0.9612944722175599,[0. 0. 0. 0. 0. 0. 0. 0. 0.],-0.05236566439270974,-0.018388032913208008,-0.5750834941864014,[0. 0. 0. 0. 0. 0. 0. 0. 0.],0.6319427490234375,0.7006066441535951,10.29905414581299,[0. 0. 0. 0. 0. 0. 0. 0. 0.]
6.660003900527954,-0.0037688096053898335,-0.013672133907675743,0.27020964026451116,0.9626972675323486,[0. 0. 0. 0. 0. 0. 0. 0. 0.],-0.016359984874725342,-0.022278727963566784,-0.5617126226425171,[0. 0. 0. 0. 0. 0. 0. 0. 0.],0.48537230491638184,-0.459755152463913,9.373785972595217,[0. 0. 0. 0. 0. 0. 0. 0. 0.]
6.680003881454468,-0.003792635165154934,-0.013976664282381536,0.26534217596054077,0.9640457630157471,[0. 0. 0. 0. 0. 0. 0. 0. 0.],-0.01643151603639126,-0.033113371580839164,-0.5552948713302612,[0. 0. 0. 0. 0. 0. 0. 0. 0.],0.5016143918037416,0.534812331199646,10.186176300048828,[0. 0. 0. 0. 0. 0. 0. 0. 0.]
6.700003623962402,-0.003715255064889789,-0.01419478375464678,0.2605788409709931,0.9653412103652954,[0. 0. 0. 0. 0. 0. 0. 0. 0.],0.0170290507376194,-0.024791067466139797,-0.5375847816467285,[0. 0. 0. 0. 0. 0. 0. 0. 0.],1.2752438783645632,-0.20963773131370544,9.125877380371094,[0. 0. 0. 0. 0. 0. 0. 0. 0.]
6.720003604888916,-0.0035277043934911494,-0.014356439933180809,0.2560766339302063,0.9665442109107972,[0. 0. 0. 0. 0. 0. 0. 0. 0.],0.011069330386817457,-0.021520260721445084,-0.5280241966247559,[0. 0. 0. 0. 0. 0. 0. 0. 0.],0.81767737865448,0.24828636646270752,10.01052474975586,[0. 0. 0. 0. 0. 0. 0. 0. 0.]
6.740003824234009,-0.0032156950328499083,-0.014413869008421898,0.2517273426055908,0.9676859378814697,[0. 0. 0. 0. 0. 0. 0. 0. 0.],0.023932013660669327,-0.009451809339225294,-0.5109266042709351,[0. 0. 0. 0. 0. 0. 0. 0. 0.],1.8492207527160645,0.3152792155742646,9.839043617248537,[0. 0. 0. 0. 0. 0. 0. 0. 0.]
6.7600038051605225,-0.0028349144849926238,-0.014387982897460462,0.24750904738903048,0.9687748551368714,[0. 0. 0. 0. 0. 0. 0. 0. 0.],0.04049688950181008,0.007936359383165838,-0.4990108609199524,[0. 0. 0. 0. 0. 0. 0. 0. 0.],0.21640485525131226,0.4155465364456177,10.3489990234375,[0. 0. 0. 0. 0. 0. 0. 0. 0.]
6.7800047397613525,-0.0023645483888685703,-0.014328733086585999,0.24341543018817904,0.9698135256767274,[0. 0. 0. 0. 0. 0. 0. 0. 0.],0.03753826022148132,0.0027842817362397914,-0.4843711853027344,[0. 0. 0. 0. 0. 0. 0. 0. 0.],0.6429677605628968,-0.2900894284248352,9.430274009704592,[0. 0. 0. 0. 0. 0. 0. 0. 0.]
6.800004720687866,-0.0017475165659561755,-0.014205753803253174,0.23945218324661255,0.9708027243614198,[0. 0. 0. 0. 0. 0. 0. 0. 0.],0.0737615004181862,-0.003229081630706787,-0.4745990037918091,[0. 0. 0. 0. 0. 0. 0. 0. 0.],0.964084267616272,0.23675617575645447,9.863683700561523,[0. 0. 0. 0. 0. 0. 0. 0. 0.]
6.82000470161438,-0.0011176241096109152,-0.014003418385982513,0.235581710934639,0.9717532396316528,[0. 0. 0. 0. 0. 0. 0. 0. 0.],0.05983785539865494,0.00984147470444441,-0.459817111492157,[0. 0. 0. 0. 0. 0. 0. 0. 0.],1.020191550254822,0.08142551779747009,9.887207984924318,[0. 0. 0. 0. 0. 0. 0. 0. 0.]
6.8400046825408936,-0.0003858355339616537,-0.013703201897442343,0.23180250823497775,0.9726667404174805,[0. 0. 0. 0. 0. 0. 0. 0. 0.],0.07895009219646454,0.006041676737368107,-0.449219435453415,[0. 0. 0. 0. 0. 0. 0. 0. 0.],0.6647872328758241,0.3457620143890381,10.386433601379396,[0. 0. 0. 0. 0. 0. 0. 0. 0.]
6.860005617141724,0.0003425684990361333,-0.01332326326519251,0.2281083017587662,0.9735450744628906,[0. 0. 0. 0. 0. 0. 0. 0. 0.],0.09022846072912218,0.028510168194770813,-0.4392864406108857,[0. 0. 0. 0. 0. 0. 0. 0. 0.],1.0955817699432373,-0.005717861931771041,9.669591903686523,[0. 0. 0. 0. 0. 0. 0. 0. 0.]
6.880005836486816,0.0010734029347077014,-0.01287078857421875,0.2244977802038193,0.9743897318840028,[0. 0. 0. 0. 0. 0. 0. 0. 0.],0.06796644628047943,0.05907640978693963,-0.44033834338188177,[0. 0. 0. 0. 0. 0. 0. 0. 0.],0.9238625764846802,0.4756153523921967,10.250004768371584,[0. 0. 0. 0. 0. 0. 0. 0. 0.]
6.90000581741333,0.0018215242307633162,-0.012385523878037931,0.22096858918666842,0.9752010107040405,[0. 0. 0. 0. 0. 0. 0. 0. 0.],0.06832406669855119,0.0285513736307621,-0.4289911091327668,[0. 0. 0. 0. 0. 0. 0. 0. 0.],0.7815008759498597,-0.11075036227703094,9.858086585998537,[0. 0. 0. 0. 0. 0. 0. 0. 0.]
6.920005798339844,0.002595609985291958,-0.01184467040002346,0.21746923029422763,0.9759922027587891,[0. 0. 0. 0. 0. 0. 0. 0. 0.],0.09929167479276658,0.031333420425653465,-0.42332714796066284,[0. 0. 0. 0. 0. 0. 0. 0. 0.],0.9647513628005981,-0.09352631121873857,9.929732322692873,[0. 0. 0. 0. 0. 0. 0. 0. 0.]
6.940005779266357,0.0033378885127604008,-0.011245465837419035,0.2140364646911621,0.9767553806304932,[0. 0. 0. 0. 0. 0. 0. 0. 0.],0.07536039501428606,0.04685000330209732,-0.41795232892036444,[0. 0. 0. 0. 0. 0. 0. 0. 0.],1.0347360372543337,0.5340268611907959,9.911653518676758,[0. 0. 0. 0. 0. 0. 0. 0. 0.]
6.959996700286865,0.004023150075227023,-0.010649442672729492,0.21062400937080383,0.9775009751319886,[0. 0. 0. 0. 0. 0. 0. 0. 0.],0.09363964200019836,0.04371628537774087,-0.40987142920494085,[0. 0. 0. 0. 0. 0. 0. 0. 0.],0.6285321712493896,-0.3642170727252961,9.634696960449219,[0. 0. 0. 0. 0. 0. 0. 0. 0.]
6.979997634887695,0.00462829414755106,-0.010041119530797005,0.2072001248598099,0.9782362580299379,[0. 0. 0. 0. 0. 0. 0. 0. 0.],0.059316318482160575,0.03242120146751404,-0.41020372509956365,[0. 0. 0. 0. 0. 0. 0. 0. 0.],1.9015178680419922,0.23389877378940585,9.584689140319826,[0. 0. 0. 0. 0. 0. 0. 0. 0.]
6.999997615814209,0.00518883252516389,-0.009398466907441618,0.20381948351860046,0.978949785232544,[0. 0. 0. 0. 0. 0. 0. 0. 0.],0.0640295520424843,0.04216060414910317,-0.40468424558639526,[0. 0. 0. 0. 0. 0. 0. 0. 0.],1.4015748500823975,0.06830932945013048,9.920042037963867,[0. 0. 0. 0. 0. 0. 0. 0. 0.]
7.019997596740723,0.005642691161483527,-0.008766959421336653,0.20047596096992493,0.9796432852745057,[0. 0. 0. 0. 0. 0. 0. 0. 0.],0.04470422863960266,0.041408095508813865,-0.3972083330154419,[0. 0. 0. 0. 0. 0. 0. 0. 0.],-0.40651479363441473,-0.020627975463867188,9.751471519470217,[0. 0. 0. 0. 0. 0. 0. 0. 0.]
7.039997577667236,0.006044790148735046,-0.00812666304409504,0.19715172052383423,0.980320930480957,[0. 0. 0. 0. 0. 0. 0. 0. 0.],0.061117857694625854,0.05208477750420571,-0.3980219662189484,[0. 0. 0. 0. 0. 0. 0. 0. 0.],0.59908127784729,-0.11795379966497423,9.461092948913576,[0. 0. 0. 0. 0. 0. 0. 0. 0.]
7.05999755859375,0.006394091062247753,-0.007486195303499699,0.19385387003421786,0.9809809923171997,[0. 0. 0. 0. 0. 0. 0. 0. 0.],0.04002377390861511,0.05751327052712441,-0.39336830377578735,[0. 0. 0. 0. 0. 0. 0. 0. 0.],0.9047988653182983,0.6845157146453857,10.080375671386719,[0. 0. 0. 0. 0. 0. 0. 0. 0.]
7.079997539520264,0.006668212357908488,-0.00687764398753643,0.19059213995933533,0.9816224575042725,[0. 0. 0. 0. 0. 0. 0. 0. 0.],0.052543740719556815,0.05044416710734368,-0.3848896026611328,[0. 0. 0. 0. 0. 0. 0. 0. 0.],0.37567862868309027,0.3516455292701721,9.781242370605469,[0. 0. 0. 0. 0. 0. 0. 0. 0.]
7.099998712539673,0.006886969320476055,-0.006339340470731258,0.18738898634910583,0.9822410941123964,[0. 0. 0. 0. 0. 0. 0. 0. 0.],0.02567097917199135,0.037299845367670066,-0.3810003399848938,[0. 0. 0. 0. 0. 0. 0. 0. 0.],0.7101671099662782,0.3443249166011811,9.895893096923828,[0. 0. 0. 0. 0. 0. 0. 0. 0.]
7.1199986934661865,0.007113138679414988,-0.005800639744848014,0.1842334717512131,0.9828394055366517,[0. 0. 0. 0. 0. 0. 0. 0. 0.],0.02875402569770813,0.049015138298273093,-0.3803223669528962,[0. 0. 0. 0. 0. 0. 0. 0. 0.],1.1532572507858279,0.38132137060165405,9.868712425231935,[0. 0. 0. 0. 0. 0. 0. 0. 0.]
7.1399986743927,0.007231971714645625,-0.005234294570982456,0.18108373880386353,0.9834271669387817,[0. 0. 0. 0. 0. 0. 0. 0. 0.],0.01133456639945507,0.04197433218359948,-0.37713491916656494,[0. 0. 0. 0. 0. 0. 0. 0. 0.],-0.24009512364864352,0.5095353722572328,10.035545349121094,[0. 0. 0. 0. 0. 0. 0. 0. 0.]
7.159998655319214,0.007366916164755821,-0.0046862224116921425,0.17799656093120578,0.9839922189712524,[0. 0. 0. 0. 0. 0. 0. 0. 0.],0.038286298513412476,0.045318156480789185,-0.3705576360225678,[0. 0. 0. 0. 0. 0. 0. 0. 0.],0.6968332529067993,0.09539445489645006,9.474156379699709,[0. 0. 0. 0. 0. 0. 0. 0. 0.]
7.1799986362457275,0.00744988489896059,-0.004168834537267685,0.17498649656772616,0.9845340847969056,[0. 0. 0. 0. 0. 0. 0. 0. 0.],0.01320764608681202,0.049868974834680564,-0.3603994846343994,[0. 0. 0. 0. 0. 0. 0. 0. 0.],0.486657589673996,0.7618909478187562,9.81494140625,[0. 0. 0. 0. 0. 0. 0. 0. 0.]
7.199999570846558,0.007482028566300869,-0.0037253859918564562,0.17202104628086093,0.985058069229126,[0. 0. 0. 0. 0. 0. 0. 0. 0.],0.0023640694562345748,0.04615262895822525,-0.35813599824905396,[0. 0. 0. 0. 0. 0. 0. 0. 0.],0.36774593591690063,-0.4557117819786072,9.037445068359375,[0. 0. 0. 0. 0. 0. 0. 0. 0.]
7.219999551773071,0.007504889275878669,-0.003333019791170955,0.1688578724861145,0.9856065511703491,[0. 0. 0. 0. 0. 0. 0. 0. 0.],0.018671905621886257,0.026402626186609268,-0.35320827364921575,[0. 0. 0. 0. 0. 0. 0. 0. 0.],0.4976352751255036,-0.04585256054997445,9.889230728149414,[0. 0. 0. 0. 0. 0. 0. 0. 0.]
7.239999532699585,0.007433649618178607,-0.0029415846802294254,0.1657197326421738,0.9861407279968262,[0. 0. 0. 0. 0. 0. 0. 0. 0.],0.006768108811229468,0.03947616741061211,-0.3506735563278198,[0. 0. 0. 0. 0. 0. 0. 0. 0.],1.3144103288650515,0.04091411083936691,9.458812713623047,[0. 0. 0. 0. 0. 0. 0. 0. 0.]
7.259999513626099,0.007312247063964606,-0.002580593805760145,0.16260869801044467,0.9866604804992676,[0. 0. 0. 0. 0. 0. 0. 0. 0.],-0.04245489835739136,0.03072098456323147,-0.3513321280479431,[0. 0. 0. 0. 0. 0. 0. 0. 0.],0.33681267499923706,0.6960073113441468,10.057000160217287,[0. 0. 0. 0. 0. 0. 0. 0. 0.]
7.279999494552612,0.007186810020357371,-0.002317963400855661,0.1595592945814133,0.9871598482131958,[0. 0. 0. 0. 0. 0. 0. 0. 0.],-0.004281103610992432,0.029630219563841823,-0.3384083807468415,[0. 0. 0. 0. 0. 0. 0. 0. 0.],0.3931505978107453,0.056666497141122825,9.353357315063477,[0. 0. 0. 0. 0. 0. 0. 0. 0.]
7.299999475479126,0.007061197888106109,-0.0021318963263183837,0.15654945373535156,0.9876430034637451,[0. 0. 0. 0. 0. 0. 0. 0. 0.],-0.019703805446624756,0.024815650656819347,-0.33898651599884033,[0. 0. 0. 0. 0. 0. 0. 0. 0.],-0.03566351905465127,0.5545858740806581,10.035848617553711,[0. 0. 0. 0. 0. 0. 0. 0. 0.]
7.320000648498535,0.006880771834403277,-0.0020291518885642294,0.15357507765293124,0.9881110787391664,[0. 0. 0. 0. 0. 0. 0. 0. 0.],-0.010323524475097656,0.01310482807457447,-0.3372997343540192,[0. 0. 0. 0. 0. 0. 0. 0. 0.],0.6946630477905273,-0.045207440853118896,8.97080707550049,[0. 0. 0. 0. 0. 0. 0. 0. 0.]
7.340000629425049,0.00671535637229681,-0.0019327591871842744,0.1506163775920868,0.988567590713501,[0. 0. 0. 0. 0. 0. 0. 0. 0.],-0.02046674676239491,-0.005258619785308838,-0.33387395739555364,[0. 0. 0. 0. 0. 0. 0. 0. 0.],0.3951093554496765,0.38383755087852484,10.02918815612793,[0. 0. 0. 0. 0. 0. 0. 0. 0.]
7.3600006103515625,0.006573988590389491,-0.001836251700296998,0.1476811170578003,0.9890117049217225,[0. 0. 0. 0. 0. 0. 0. 0. 0.],-0.013661385513842108,-0.0017508866731077433,-0.3286585211753845,[0. 0. 0. 0. 0. 0. 0. 0. 0.],1.5474923849105837,0.18055014312267306,9.431909561157227,[0. 0. 0. 0. 0. 0. 0. 0. 0.]
7.380000591278076,0.006431234534829856,-0.0018175950972363355,0.14478033781051636,0.9894413948059082,[0. 0. 0. 0. 0. 0. 0. 0. 0.],-0.02431124821305275,0.013896080665290357,-0.32468146085739136,[0. 0. 0. 0. 0. 0. 0. 0. 0.],-0.11364728957414628,0.7814342975616455,10.360690116882326,[0. 0. 0. 0. 0. 0. 0. 0. 0.]
7.40000057220459,0.006346499081701041,-0.001849491847679019,0.14193330705165866,0.9898541569709779,[0. 0. 0. 0. 0. 0. 0. 0. 0.],0.0022388994693756104,0.006461888551712036,-0.3204658925533295,[0. 0. 0. 0. 0. 0. 0. 0. 0.],0.8037647008895874,-0.1984546929597855,9.362878799438477,[0. 0. 0. 0. 0. 0. 0. 0. 0.]
7.4200005531311035,0.006228986661881209,-0.0018917412962764502,0.1391260772943497,0.990253210067749,[0. 0. 0. 0. 0. 0. 0. 0. 0.],0.0010251998901367188,-0.010059774853289129,-0.3181830048561096,[0. 0. 0. 0. 0. 0. 0. 0. 0.],-0.16032949090003967,0.1601870805025101,10.086326599121094,[0. 0. 0. 0. 0. 0. 0. 0. 0.]
7.440001487731934,0.0062063862569630155,-0.0019178747897967698,0.13636864721775058,0.990636944770813,[0. 0. 0. 0. 0. 0. 0. 0. 0.],0.002909451723098755,-0.00919103715568781,-0.30860009789466863,[0. 0. 0. 0. 0. 0. 0. 0. 0.],0.44510698318481445,-0.1311251372098923,9.224000930786133,[0. 0. 0. 0. 0. 0. 0. 0. 0.]
7.460001468658447,0.006142772734165192,-0.002009234856814146,0.13352866470813754,0.9910240173339844,[0. 0. 0. 0. 0. 0. 0. 0. 0.],-0.00517219351604581,-0.021207328885793686,-0.30793550610542303,[0. 0. 0. 0. 0. 0. 0. 0. 0.],-0.5223942399024964,0.22422435879707336,10.094078063964844,[0. 0. 0. 0. 0. 0. 0. 0. 0.]
7.480001449584961,0.006150011904537678,-0.0021453180816024546,0.13059113919734958,0.9914149045944214,[0. 0. 0. 0. 0. 0. 0. 0. 0.],0.0028796489350497723,-0.005823373794555664,-0.3060430586338044,[0. 0. 0. 0. 0. 0. 0. 0. 0.],1.077608585357666,-0.10138741135597229,9.689578056335451,[0. 0. 0. 0. 0. 0. 0. 0. 0.]
7.500001430511475,0.006150888279080391,-0.0022603049874305725,0.12766632437705994,0.9917957186698915,[0. 0. 0. 0. 0. 0. 0. 0. 0.],-0.0044226651079952726,0.015232712030410767,-0.30273798108100897,[0. 0. 0. 0. 0. 0. 0. 0. 0.],0.01871749758720398,0.6654197573661805,10.521897315979006,[0. 0. 0. 0. 0. 0. 0. 0. 0.]
7.520001411437988,0.006183626595884562,-0.0024072835221886635,0.12478319555521013,0.992162048816681,[0. 0. 0. 0. 0. 0. 0. 0. 0.],-0.010256470181047918,-0.007936358451843262,-0.3014802932739258,[0. 0. 0. 0. 0. 0. 0. 0. 0.],1.3040320873260498,-0.16405490040779114,9.465354919433594,[0. 0. 0. 0. 0. 0. 0. 0. 0.]
7.5400025844573975,0.006201961077749729,-0.00253853527829051,0.12192665785551073,0.9925165176391602,[0. 0. 0. 0. 0. 0. 0. 0. 0.],-0.0006524098571389914,-0.009616344235837461,-0.29299604892730713,[0. 0. 0. 0. 0. 0. 0. 0. 0.],0.4526066184043884,0.38730448484420776,10.101415634155273,[0. 0. 0. 0. 0. 0. 0. 0. 0.]
7.560002565383911,0.006260608788579703,-0.002713791793212295,0.11910699307918549,0.9928579926490785,[0. 0. 0. 0. 0. 0. 0. 0. 0.],-0.02055764384567738,-0.02916008792817593,-0.2883926033973694,[0. 0. 0. 0. 0. 0. 0. 0. 0.],0.3401861488819123,0.42926156520843506,9.62333393096924,[0. 0. 0. 0. 0. 0. 0. 0. 0.]
7.580002546310425,0.006332178134471179,-0.0029421511571854357,0.1163017749786377,0.9931895136833192,[0. 0. 0. 0. 0. 0. 0. 0. 0.],0.007886439561843872,-0.04138649627566338,-0.2837330102920532,[0. 0. 0. 0. 0. 0. 0. 0. 0.],0.022194022312760357,0.14803157746791842,9.974403381347656,[0. 0. 0. 0. 0. 0. 0. 0. 0.]
7.6000025272369385,0.0064265537075698384,-0.0031139259226620197,0.11355645209550859,0.9935058355331421,[0. 0. 0. 0. 0. 0. 0. 0. 0.],0.012845548801124098,-0.014258923009037971,-0.2827436327934265,[0. 0. 0. 0. 0. 0. 0. 0. 0.],1.47787082195282,0.22710618376731873,9.437262535095217,[0. 0. 0. 0. 0. 0. 0. 0. 0.]
7.620002508163452,0.006568668410181999,-0.00330562936142087,0.11087197810411455,0.9938075542449951,[0. 0. 0. 0. 0. 0. 0. 0. 0.],0.021174553781747818,-0.015793742612004284,-0.2780035138130188,[0. 0. 0. 0. 0. 0. 0. 0. 0.],0.5549951195716859,0.7109839320182801,10.200368881225586,[0. 0. 0. 0. 0. 0. 0. 0. 0.]
7.640002489089966,0.006693001836538315,-0.003525809152051807,0.10823502391576768,0.9940964579582215,[0. 0. 0. 0. 0. 0. 0. 0. 0.],-0.004793704487383366,-0.037840016186237335,-0.2681777775287629,[0. 0. 0. 0. 0. 0. 0. 0. 0.],0.3428098857402802,-0.05844340845942498,9.789767265319826,[0. 0. 0. 0. 0. 0. 0. 0. 0.]
7.660003423690796,0.00691688945516944,-0.0037562462966889147,0.10566240549087524,0.9943708181381226,[0. 0. 0. 0. 0. 0. 0. 0. 0.],0.028308486565947536,-0.02619028091430664,-0.2660066187381745,[0. 0. 0. 0. 0. 0. 0. 0. 0.],-0.13719277083873752,0.4412042498588562,10.20143222808838,[0. 0. 0. 0. 0. 0. 0. 0. 0.]
7.68000340461731,0.007192591205239296,-0.003968229983001948,0.10314802825450897,0.9946318864822388,[0. 0. 0. 0. 0. 0. 0. 0. 0.],0.010577590204775335,-0.032255060970783234,-0.25772160291671753,[0. 0. 0. 0. 0. 0. 0. 0. 0.],0.27333104610443115,0.28105980157852173,10.030550003051758,[0. 0. 0. 0. 0. 0. 0. 0. 0.]
7.700003385543823,0.00750146247446537,-0.004127425141632557,0.10071288049221039,0.9948784708976747,[0. 0. 0. 0. 0. 0. 0. 0. 0.],0.03150180354714394,-0.02888590469956398,-0.24839048087596896,[0. 0. 0. 0. 0. 0. 0. 0. 0.],0.4415518641471863,0.5546957850456239,9.727259635925295,[0. 0. 0. 0. 0. 0. 0. 0. 0.]
7.720003366470337,0.007885988801717758,-0.004323669709265232,0.09813351184129716,0.9951326251029969,[0. 0. 0. 0. 0. 0. 0. 0. 0.],0.035325437784194946,-0.02856701985001564,-0.24006669223308566,[0. 0. 0. 0. 0. 0. 0. 0. 0.],0.957271933555603,0.1858092397451401,9.533748626708984,[0. 0. 0. 0. 0. 0. 0. 0. 0.]
7.740003347396851,0.008294093422591688,-0.004470626823604107,0.09561962634325029,0.9953734278678895,[0. 0. 0. 0. 0. 0. 0. 0. 0.],0.03722980991005898,-0.011560320854187012,-0.23945124447345736,[0. 0. 0. 0. 0. 0. 0. 0. 0.],1.2808029651641846,1.019284725189209,10.18069839477539,[0. 0. 0. 0. 0. 0. 0. 0. 0.]
7.760003328323364,0.008667851798236372,-0.004597618244588375,0.09320019930601121,0.9955992102622987,[0. 0. 0. 0. 0. 0. 0. 0. 0.],0.025603175163269043,-0.011982024647295477,-0.22371710836887362,[0. 0. 0. 0. 0. 0. 0. 0. 0.],-0.3581195175647736,0.5547300577163696,9.858630180358888,[0. 0. 0. 0. 0. 0. 0. 0. 0.]
7.780004501342773,0.009125007316470146,-0.004670538939535618,0.09084840863943101,0.9958123564720155,[0. 0. 0. 0. 0. 0. 0. 0. 0.],0.040393322706222534,-0.004428625572472812,-0.22341609001159668,[0. 0. 0. 0. 0. 0. 0. 0. 0.],0.6340956687927246,0.4510273337364197,9.586067199707031,[0. 0. 0. 0. 0. 0. 0. 0. 0.]
7.800004482269287,0.009607609361410141,-0.004704210441559554,0.08859210461378099,0.9960108399391175,[0. 0. 0. 0. 0. 0. 0. 0. 0.],0.0407300926744938,-0.003042817814275623,-0.20335319638252258,[0. 0. 0. 0. 0. 0. 0. 0. 0.],0.18717192113399508,0.8319132924079896,10.299262046813967,[0. 0. 0. 0. 0. 0. 0. 0. 0.]
