time,orientation.x,orientation.y,orientation.z,orientation.w,orientation_covariance,angular_velocity.x,angular_velocity.y,angular_velocity.z,angular_velocity_covariance,linear_acceleration.x,linear_acceleration.y,linear_acceleration.z,linear_acceleration_covariance
1.354144811630249,-0.002686016261577606,-0.004060187842696906,0.9757919907569886,0.21864743530750277,[0. 0. 0. 0. 0. 0. 0. 0. 0.],0.16436058282852173,-0.01745969243347645,-0.09940417110919952,[0. 0. 0. 0. 0. 0. 0. 0. 0.],-0.3008940815925598,-0.18078482151031494,9.65945053100586,[0. 0. 0. 0. 0. 0. 0. 0. 0.]
1.3741447925567627,-0.0022166727576404814,-0.0025304961018264294,0.9755805730819702,0.21961680054664612,[0. 0. 0. 0. 0. 0. 0. 0. 0.],0.14925524592399597,-0.016467273235321045,-0.1029089316725731,[0. 0. 0. 0. 0. 0. 0. 0. 0.],-0.5268127918243408,-0.0651896744966507,9.931564331054688,[0. 0. 0. 0. 0. 0. 0. 0. 0.]
1.3941450119018555,-0.001767357927747071,-0.0010891389101743698,0.975366473197937,0.22058120369911194,[0. 0. 0. 0. 0. 0. 0. 0. 0.],0.15012997388839722,-0.01942664943635464,-0.10129810869693756,[0. 0. 0. 0. 0. 0. 0. 0. 0.],0.040677234530448914,-0.14964900910854342,9.581669807434084,[0. 0. 0. 0. 0. 0. 0. 0. 0.]
1.4141449928283691,-0.0013330929214134815,0.00020970172772649678,0.9751533865928651,0.2215275764465332,[0. 0. 0. 0. 0. 0. 0. 0. 0.],0.13451054692268372,-0.008919836021959783,-0.09774864464998247,[0. 0. 0. 0. 0. 0. 0. 0. 0.],-0.03625236451625824,0.260020911693573,9.744296073913576,[0. 0. 0. 0. 0. 0. 0. 0. 0.]
1.4341459274291992,-0.0009066033526323737,0.00138940685428679,0.9749380350112915,0.22247169911861422,[0. 0. 0. 0. 0. 0. 0. 0. 0.],0.11268930882215501,-0.005093216896057129,-0.09761007875204088,[0. 0. 0. 0. 0. 0. 0. 0. 0.],-0.2163355201482773,0.09327492117881775,9.68558979034424,[0. 0. 0. 0. 0. 0. 0. 0. 0.]
1.454145908355713,-0.0005084408912807703,0.0024325945414602757,0.9747250080108643,0.22339436411857605,[0. 0. 0. 0. 0. 0. 0. 0. 0.],0.1086689680814743,-0.014443697407841682,-0.09459704905748369,[0. 0. 0. 0. 0. 0. 0. 0. 0.],-0.14851899445056918,0.024857314303517345,9.834884643554688,[0. 0. 0. 0. 0. 0. 0. 0. 0.]
1.4741458892822266,-0.0001558111107442528,0.003311611479148269,0.9745150208473207,0.22429797053337097,[0. 0. 0. 0. 0. 0. 0. 0. 0.],0.08958949893712999,-0.013655424118041992,-0.09394288808107377,[0. 0. 0. 0. 0. 0. 0. 0. 0.],-0.006898018065840007,0.028811637312173843,9.741920471191406,[0. 0. 0. 0. 0. 0. 0. 0. 0.]
1.4941458702087402,0.00015038199489936233,0.0040165213868021965,0.9743051528930664,0.22519643604755404,[0. 0. 0. 0. 0. 0. 0. 0. 0.],0.06275177747011186,-0.01948028802871704,-0.09552538394927979,[0. 0. 0. 0. 0. 0. 0. 0. 0.],-0.05374564230442047,0.2053074836730957,9.690041542053224,[0. 0. 0. 0. 0. 0. 0. 0. 0.]
1.514145851135254,0.00044432468712329865,0.004514731466770172,0.9740968346595765,0.226086363196373,[0. 0. 0. 0. 0. 0. 0. 0. 0.],0.04850998520851135,-0.02010762877762318,-0.09115487337112427,[0. 0. 0. 0. 0. 0. 0. 0. 0.],-0.016053277999162674,0.18673408031463623,9.701993942260742,[0. 0. 0. 0. 0. 0. 0. 0. 0.]
1.534146785736084,0.0006910773226991296,0.004831320606172085,0.9738883972167969,0.22697529196739197,[0. 0. 0. 0. 0. 0. 0. 0. 0.],0.02532079815864563,-0.01452118344604969,-0.09346903115510942,[0. 0. 0. 0. 0. 0. 0. 0. 0.],-0.01683775708079338,0.20686714351177218,9.718429565429688,[0. 0. 0. 0. 0. 0. 0. 0. 0.]
1.5541467666625977,0.0009025855106301607,0.00499157002195716,0.9736703634262085,0.22790437936782837,[0. 0. 0. 0. 0. 0. 0. 0. 0.],0.014070423319935799,-0.017200412228703502,-0.09766967594623566,[0. 0. 0. 0. 0. 0. 0. 0. 0.],0.19179619848728183,0.3049943447113037,9.778766632080078,[0. 0. 0. 0. 0. 0. 0. 0. 0.]
1.5741467475891113,0.001062803901731968,0.004963902290910483,0.9734516739845277,0.22883649170398715,[0. 0. 0. 0. 0. 0. 0. 0. 0.],-0.006438791751861572,-0.014592706225812437,-0.09825975447893144,[0. 0. 0. 0. 0. 0. 0. 0. 0.],-0.11014872789382935,0.18337444961071017,9.749348640441896,[0. 0. 0. 0. 0. 0. 0. 0. 0.]
1.594146728515625,0.0011978393886238337,0.004751960281282664,0.9732295274734497,0.2297835648059845,[0. 0. 0. 0. 0. 0. 0. 0. 0.],-0.026291605085134506,-0.01479089353233576,-0.09957998991012573,[0. 0. 0. 0. 0. 0. 0. 0. 0.],-0.009592113085091116,0.2356763482093811,9.763041496276857,[0. 0. 0. 0. 0. 0. 0. 0. 0.]
1.6141467094421387,0.0012786146253347397,0.004342921078205109,0.9729993343353271,0.23076416552066806,[0. 0. 0. 0. 0. 0. 0. 0. 0.],-0.041945274919271476,-0.013169647194445135,-0.10412335395812988,[0. 0. 0. 0. 0. 0. 0. 0. 0.],0.022237632423639297,0.2629746198654175,9.841708183288576,[0. 0. 0. 0. 0. 0. 0. 0. 0.]
1.6341469287872314,0.0012817229144275188,0.0038148446474224333,0.9727596044540405,0.2317819893360138,[0. 0. 0. 0. 0. 0. 0. 0. 0.],-0.05672723054885864,-0.0055611138232052335,-0.11278839409351349,[0. 0. 0. 0. 0. 0. 0. 0. 0.],-0.18676845729351046,0.5469849109649658,10.016449928283693,[0. 0. 0. 0. 0. 0. 0. 0. 0.]
1.6541478633880615,0.0012296289205551147,0.0031915584113448863,0.9725014567375184,0.23287253081798556,[0. 0. 0. 0. 0. 0. 0. 0. 0.],-0.06508678197860718,-0.004360080230981112,-0.12100788205862047,[0. 0. 0. 0. 0. 0. 0. 0. 0.],-0.09432394057512285,0.4566086530685425,10.000185966491701,[0. 0. 0. 0. 0. 0. 0. 0. 0.]
1.6741478443145752,0.0011840917868539693,0.00249215355142951,0.9722201228141786,0.2340538501739502,[0. 0. 0. 0. 0. 0. 0. 0. 0.],-0.06608218699693681,-0.011457504704594612,-0.12713225185871127,[0. 0. 0. 0. 0. 0. 0. 0. 0.],0.08483059704303741,0.2735517323017121,9.747118949890138,[0. 0. 0. 0. 0. 0. 0. 0. 0.]
1.6941478252410889,0.001118344021961093,0.0017433776520192623,0.9719136357307435,0.2353295832872391,[0. 0. 0. 0. 0. 0. 0. 0. 0.],-0.08179545402526855,-0.01090914011001587,-0.1370668560266495,[0. 0. 0. 0. 0. 0. 0. 0. 0.],0.30951902270317083,0.568398118019104,9.922898292541506,[0. 0. 0. 0. 0. 0. 0. 0. 0.]
1.7141478061676025,0.0010440537007525565,0.00098707084544003,0.9715862870216371,0.23668219149112704,[0. 0. 0. 0. 0. 0. 0. 0. 0.],-0.07914452999830247,-0.007720291614532471,-0.1460358649492264,[0. 0. 0. 0. 0. 0. 0. 0. 0.],0.041478525847196586,0.2057466953992844,9.759418487548828,[0. 0. 0. 0. 0. 0. 0. 0. 0.]
1.7341477870941162,0.0009166325908154249,0.00022666584118269384,0.9712347984313965,0.2381228804588318,[0. 0. 0. 0. 0. 0. 0. 0. 0.],-0.08245856314897539,0.0010885298252105713,-0.15344172716140747,[0. 0. 0. 0. 0. 0. 0. 0. 0.],0.2528885006904602,0.4309607744216919,9.977121353149414,[0. 0. 0. 0. 0. 0. 0. 0. 0.]
1.7541477680206299,0.0007368851220235229,-0.0005497210659086704,0.9708606600761415,0.23964352905750277,[0. 0. 0. 0. 0. 0. 0. 0. 0.],-0.07225126028060913,-0.0035211446229368453,-0.15935003757476807,[0. 0. 0. 0. 0. 0. 0. 0. 0.],0.06338394433259965,0.1836589723825455,9.746942520141602,[0. 0. 0. 0. 0. 0. 0. 0. 0.]
1.77414870262146,0.0005514216027222575,-0.001374324434436858,0.9704697132110596,0.2412190288305283,[0. 0. 0. 0. 0. 0. 0. 0. 0.],-0.08758604526519775,-0.0005185604095458984,-0.16743244230747226,[0. 0. 0. 0. 0. 0. 0. 0. 0.],0.12058514356613159,0.15995346009731296,9.81961441040039,[0. 0. 0. 0. 0. 0. 0. 0. 0.]
1.7941489219665527,0.0003541480109561235,-0.0022074715234339237,0.970069408416748,0.2428179383277893,[0. 0. 0. 0. 0. 0. 0. 0. 0.],-0.07971227169036865,0.0012256206246092918,-0.1657351851463318,[0. 0. 0. 0. 0. 0. 0. 0. 0.],0.21045994758605957,0.19510968029499057,9.830347061157227,[0. 0. 0. 0. 0. 0. 0. 0. 0.]
1.8141486644744873,0.00010350981028750539,-0.003084940370172262,0.9696612358093262,0.2444337457418442,[0. 0. 0. 0. 0. 0. 0. 0. 0.],-0.09628534317016602,0.005353242624551059,-0.16677977144718173,[0. 0. 0. 0. 0. 0. 0. 0. 0.],0.07079754769802094,0.0573175773024559,9.822074890136719,[0. 0. 0. 0. 0. 0. 0. 0. 0.]
1.834148645401001,-0.0002109459019266069,-0.0039786696434021,0.9692450761795044,0.2460658848285675,[0. 0. 0. 0. 0. 0. 0. 0. 0.],-0.08848235011100769,0.012889505364000799,-0.17274540662765503,[0. 0. 0. 0. 0. 0. 0. 0. 0.],0.22260724008083346,0.20240366458892822,9.98189926147461,[0. 0. 0. 0. 0. 0. 0. 0. 0.]
1.8541486263275146,-0.0006063730106689037,-0.004933511838316917,0.9688272476196289,0.2476881742477417,[0. 0. 0. 0. 0. 0. 0. 0. 0.],-0.11081548035144806,0.019744783639907837,-0.16842190921306613,[0. 0. 0. 0. 0. 0. 0. 0. 0.],-0.2581856548786164,0.19325076043605807,9.976068496704102,[0. 0. 0. 0. 0. 0. 0. 0. 0.]
1.8741488456726074,-0.0010026457021012904,-0.005907387007027865,0.9684033393859863,0.24931831657886508,[0. 0. 0. 0. 0. 0. 0. 0. 0.],-0.10774584114551544,0.0116519657894969,-0.16795995831489563,[0. 0. 0. 0. 0. 0. 0. 0. 0.],-0.4286328256130219,-0.005477129016071559,10.017809867858888,[0. 0. 0. 0. 0. 0. 0. 0. 0.]
1.8941497802734375,-0.0014368759002536535,-0.006904318928718567,0.9679749011993408,0.2509489059448242,[0. 0. 0. 0. 0. 0. 0. 0. 0.],-0.10184796154499054,0.01630262099206448,-0.17033965885639193,[0. 0. 0. 0. 0. 0. 0. 0. 0.],0.4329510629177094,0.0576639249920845,9.751091003417969,[0. 0. 0. 0. 0. 0. 0. 0. 0.]
1.9141497611999512,-0.0019086928805336358,-0.007890862412750723,0.9675479531288148,0.25255703926086426,[0. 0. 0. 0. 0. 0. 0. 0. 0.],-0.10256173461675645,0.025260452181100845,-0.16794358193874362,[0. 0. 0. 0. 0. 0. 0. 0. 0.],0.3098274767398835,0.3184513151645661,9.916598320007326,[0. 0. 0. 0. 0. 0. 0. 0. 0.]
1.9341497421264648,-0.002453760011121631,-0.00889913644641638,0.9671202898025513,0.25415337085723877,[0. 0. 0. 0. 0. 0. 0. 0. 0.],-0.11924804002046586,0.03549382463097573,-0.16460418701171875,[0. 0. 0. 0. 0. 0. 0. 0. 0.],-0.34502291679382324,0.07454749941825867,9.941068649291992,[0. 0. 0. 0. 0. 0. 0. 0. 0.]
1.9541497230529785,-0.0029944442212581635,-0.00987151823937893,0.9666932821273804,0.2557312250137329,[0. 0. 0. 0. 0. 0. 0. 0. 0.],-0.10085254907608032,0.026031585410237316,-0.16328096389770508,[0. 0. 0. 0. 0. 0. 0. 0. 0.],0.022497542202472687,-0.08899635076522827,9.8502197265625,[0. 0. 0. 0. 0. 0. 0. 0. 0.]
1.9741497039794922,-0.0035453906748443846,-0.010856080800294876,0.9662673473358154,0.2572887837886811,[0. 0. 0. 0. 0. 0. 0. 0. 0.],-0.10641665756702423,0.027341401204466823,-0.1643762141466141,[0. 0. 0. 0. 0. 0. 0. 0. 0.],-0.21479681134223938,-0.007891963236033918,9.88622570037842,[0. 0. 0. 0. 0. 0. 0. 0. 0.]
1.9941496849060059,-0.004082708153873683,-0.01181410625576973,0.9658405780792236,0.2588367462158203,[0. 0. 0. 0. 0. 0. 0. 0. 0.],-0.09808540344238281,0.0318385697901249,-0.15926656126976013,[0. 0. 0. 0. 0. 0. 0. 0. 0.],-0.0016381347086280584,0.0002930414630100131,9.789801597595217,[0. 0. 0. 0. 0. 0. 0. 0. 0.]
2.0141496658325195,-0.00456654466688633,-0.01268159691244364,0.9654187560081483,0.2603565156459809,[0. 0. 0. 0. 0. 0. 0. 0. 0.],-0.09378865361213684,0.03400444984436035,-0.15943275392055514,[0. 0. 0. 0. 0. 0. 0. 0. 0.],-0.023509265854954723,-0.0755961537361145,9.898476600646974,[0. 0. 0. 0. 0. 0. 0. 0. 0.]
2.034149646759033,-0.00506163900718093,-0.013507929630577566,0.9650027155876161,0.2618436813354492,[0. 0. 0. 0. 0. 0. 0. 0. 0.],-0.09595454484224321,0.0277005173265934,-0.1518562585115433,[0. 0. 0. 0. 0. 0. 0. 0. 0.],-0.12590099871158603,-0.16077008843421936,10.05668830871582,[0. 0. 0. 0. 0. 0. 0. 0. 0.]
2.0541417598724365,-0.005543586798012257,-0.01421524863690138,0.9645929336547852,0.26330214738845825,[0. 0. 0. 0. 0. 0. 0. 0. 0.],-0.07785708457231523,0.026736408472061157,-0.1513272523880005,[0. 0. 0. 0. 0. 0. 0. 0. 0.],0.025578981265425686,-0.10997644811868669,9.940915107727053,[0. 0. 0. 0. 0. 0. 0. 0. 0.]
2.0741426944732666,-0.0059594037011265755,-0.014834736473858358,0.9641910791397095,0.2647270858287812,[0. 0. 0. 0. 0. 0. 0. 0. 0.],-0.06920696049928667,0.02584681287407875,-0.14934094250202182,[0. 0. 0. 0. 0. 0. 0. 0. 0.],-0.18022875487804416,-0.20410633087158203,9.786798477172852,[0. 0. 0. 0. 0. 0. 0. 0. 0.]
2.0941426753997803,-0.006313949823379517,-0.015316055156290533,0.963794767856598,0.26612991094589233,[0. 0. 0. 0. 0. 0. 0. 0. 0.],-0.04687608405947686,0.01782849617302418,-0.14816373586654663,[0. 0. 0. 0. 0. 0. 0. 0. 0.],0.07161696255207062,-0.02118332125246525,9.889269828796388,[0. 0. 0. 0. 0. 0. 0. 0. 0.]
2.114142656326294,-0.006601043511182071,-0.015654647722840313,0.9634019136428833,0.26752266287803655,[0. 0. 0. 0. 0. 0. 0. 0. 0.],-0.034135583788156516,0.030206147581338882,-0.14634580910205844,[0. 0. 0. 0. 0. 0. 0. 0. 0.],0.024091485887765884,0.038299929350614555,9.767131805419922,[0. 0. 0. 0. 0. 0. 0. 0. 0.]
2.1341426372528076,-0.006855650339275599,-0.015854289755225185,0.9630120396614076,0.26890504360198975,[0. 0. 0. 0. 0. 0. 0. 0. 0.],-0.019389392808079723,0.02654716745018959,-0.14752450585365295,[0. 0. 0. 0. 0. 0. 0. 0. 0.],-0.2814539670944214,-0.14174535870552063,9.779046058654787,[0. 0. 0. 0. 0. 0. 0. 0. 0.]
2.1541426181793213,-0.007042075973004104,-0.015904156491160396,0.9626244306564331,0.27028125524520874,[0. 0. 0. 0. 0. 0. 0. 0. 0.],0.0024043023586273193,0.021844359114766124,-0.1441165804862976,[0. 0. 0. 0. 0. 0. 0. 0. 0.],-0.024405911564826965,-0.2495502531528473,9.79220962524414,[0. 0. 0. 0. 0. 0. 0. 0. 0.]
2.174142599105835,-0.00714500155299902,-0.01577186025679112,0.9622411131858827,0.27164745330810547,[0. 0. 0. 0. 0. 0. 0. 0. 0.],0.022874029353260997,0.022967906668782238,-0.1444980502128601,[0. 0. 0. 0. 0. 0. 0. 0. 0.],-0.06190555915236474,-0.07601660490036011,9.825446128845217,[0. 0. 0. 0. 0. 0. 0. 0. 0.]
2.194143772125244,-0.007169023156166077,-0.015490779653191566,0.9618629217147827,0.27299907803535467,[0. 0. 0. 0. 0. 0. 0. 0. 0.],0.03831163048744202,0.013605508022010328,-0.1410752534866333,[0. 0. 0. 0. 0. 0. 0. 0. 0.],-0.12750914692878723,-0.38287761807441717,9.666975975036623,[0. 0. 0. 0. 0. 0. 0. 0. 0.]
2.214143753051758,-0.007135896012187004,-0.015058599412441254,0.961493730545044,0.27432161569595337,[0. 0. 0. 0. 0. 0. 0. 0. 0.],0.05260110273957253,0.014549493789672852,-0.1383572816848755,[0. 0. 0. 0. 0. 0. 0. 0. 0.],-0.16174282133579257,-0.006337217055261135,9.888596534729006,[0. 0. 0. 0. 0. 0. 0. 0. 0.]
2.2341437339782715,-0.007063605822622776,-0.014522236771881582,0.961131513118744,0.2756191790103913,[0. 0. 0. 0. 0. 0. 0. 0. 0.],0.059705235064029694,0.008662790991365911,-0.1331120729446411,[0. 0. 0. 0. 0. 0. 0. 0. 0.],-0.0186699740588665,-0.27344000339508057,9.80030918121338,[0. 0. 0. 0. 0. 0. 0. 0. 0.]
2.254143714904785,-0.006950242444872856,-0.013813317753374578,0.9607767462730409,0.27689203619956976,[0. 0. 0. 0. 0. 0. 0. 0. 0.],0.0760398805141449,0.015010684728622437,-0.13273210823535922,[0. 0. 0. 0. 0. 0. 0. 0. 0.],-0.0425836443901062,-0.16530925035476685,9.78477668762207,[0. 0. 0. 0. 0. 0. 0. 0. 0.]
2.274143695831299,-0.00678881211206317,-0.012987292371690275,0.9604321718215942,0.2781286537647248,[0. 0. 0. 0. 0. 0. 0. 0. 0.],0.09176211059093475,0.01511946599930525,-0.12908726930618286,[0. 0. 0. 0. 0. 0. 0. 0. 0.],-0.25373676419258123,-0.15915374457836154,9.877424240112305,[0. 0. 0. 0. 0. 0. 0. 0. 0.]
2.2941436767578125,-0.00658300193026662,-0.012047769501805305,0.9600999355316162,0.2793206572532654,[0. 0. 0. 0. 0. 0. 0. 0. 0.],0.10515525937080383,0.01466945093125105,-0.1207992509007454,[0. 0. 0. 0. 0. 0. 0. 0. 0.],-0.009462011046707632,-0.15406110882759094,9.643071174621584,[0. 0. 0. 0. 0. 0. 0. 0. 0.]
2.3141446113586426,-0.00634684506803751,-0.011019404977560043,0.9597846269607544,0.28044977784156805,[0. 0. 0. 0. 0. 0. 0. 0. 0.],0.10771602392196655,0.010499359108507635,-0.11609792709350586,[0. 0. 0. 0. 0. 0. 0. 0. 0.],-0.1710966378450394,0.04126997664570809,9.833630561828615,[0. 0. 0. 0. 0. 0. 0. 0. 0.]
2.3341445922851562,-0.006126838270574809,-0.009936590678989889,0.9594827294349672,0.28152602910995483,[0. 0. 0. 0. 0. 0. 0. 0. 0.],0.1074560135602951,0.016344338655471802,-0.11128636449575426,[0. 0. 0. 0. 0. 0. 0. 0. 0.],-0.5976220369338989,0.00010597450454952197,9.976959228515625,[0. 0. 0. 0. 0. 0. 0. 0. 0.]
2.35414457321167,-0.00585651770234108,-0.008743192069232466,0.9592007398605347,0.28253057599067694,[0. 0. 0. 0. 0. 0. 0. 0. 0.],0.13087540864944458,0.009007752873003485,-0.1013726145029068,[0. 0. 0. 0. 0. 0. 0. 0. 0.],-0.012773283757269384,-0.13623815774917603,9.75663471221924,[0. 0. 0. 0. 0. 0. 0. 0. 0.]
2.3741445541381836,-0.005563812796026469,-0.0075126755982637405,0.9589332342147827,0.283478319644928,[0. 0. 0. 0. 0. 0. 0. 0. 0.],0.12534037232398987,0.019384181126952175,-0.09615870565176012,[0. 0. 0. 0. 0. 0. 0. 0. 0.],-0.11009557545185089,0.0991262122988701,9.72098159790039,[0. 0. 0. 0. 0. 0. 0. 0. 0.]
2.3941445350646973,-0.005258673336356879,-0.006215646862983704,0.9586870670318604,0.28434693813323975,[0. 0. 0. 0. 0. 0. 0. 0. 0.],0.13916720449924472,0.0027306382544338703,-0.08823872357606889,[0. 0. 0. 0. 0. 0. 0. 0. 0.],-0.003578960662707687,0.04011320322751999,9.62823486328125,[0. 0. 0. 0. 0. 0. 0. 0. 0.]
2.414144515991211,-0.004945955239236355,-0.004925759509205818,0.9584598541259766,0.28514307737350464,[0. 0. 0. 0. 0. 0. 0. 0. 0.],0.12686774134635925,0.015751272439956665,-0.07842629402875902,[0. 0. 0. 0. 0. 0. 0. 0. 0.],-0.3121223151683808,0.13378822803497314,9.851068496704102,[0. 0. 0. 0. 0. 0. 0. 0. 0.]
2.43414568901062,-0.00461173988878727,-0.003625738900154829,0.9582553505897523,0.28585472702980047,[0. 0. 0. 0. 0. 0. 0. 0. 0.],0.14070795476436618,0.006102771498262882,-0.07258654385805131,[0. 0. 0. 0. 0. 0. 0. 0. 0.],0.16432239115238192,0.08489828556776048,9.667728424072266,[0. 0. 0. 0. 0. 0. 0. 0. 0.]
2.454145669937134,-0.00427641673013568,-0.0023932126350700855,0.9580677151679994,0.2865009307861328,[0. 0. 0. 0. 0. 0. 0. 0. 0.],0.12647435069084167,0.003743917448446155,-0.06446541100740434,[0. 0. 0. 0. 0. 0. 0. 0. 0.],-0.3962387442588806,0.10014289617538452,9.649909973144531,[0. 0. 0. 0. 0. 0. 0. 0. 0.]
2.4741456508636475,-0.003901232266798616,-0.0011626681080088022,0.9579002261161805,0.28707358241081243,[0. 0. 0. 0. 0. 0. 0. 0. 0.],0.1287914961576462,0.004782527685165405,-0.05804152414202691,[0. 0. 0. 0. 0. 0. 0. 0. 0.],0.16455355286598206,0.3694663643836975,9.740260124206545,[0. 0. 0. 0. 0. 0. 0. 0. 0.]
2.494145631790161,-0.003547786734998226,-6.277982902247459e-05,0.9577545523643495,0.28756520152091986,[0. 0. 0. 0. 0. 0. 0. 0. 0.],0.11371300369501115,9.909272921504454e-05,-0.04715919494628906,[0. 0. 0. 0. 0. 0. 0. 0. 0.],-0.43672871589660645,-0.07370727509260179,9.699414253234865,[0. 0. 0. 0. 0. 0. 0. 0. 0.]
2.514145612716675,-0.0031753645744174723,0.0009825837332755327,0.9576311111450195,0.2879789769649506,[0. 0. 0. 0. 0. 0. 0. 0. 0.],0.10722803324460985,-0.006946922279894352,-0.04058182612061501,[0. 0. 0. 0. 0. 0. 0. 0. 0.],-0.12375528365373613,0.44724923372268677,9.918238639831545,[0. 0. 0. 0. 0. 0. 0. 0. 0.]
2.534146547317505,-0.0028192524332553153,0.0019071783171966674,0.9575313925743104,0.28831005096435547,[0. 0. 0. 0. 0. 0. 0. 0. 0.],0.10668115317821503,-0.007975102402269842,-0.03249198570847512,[0. 0. 0. 0. 0. 0. 0. 0. 0.],-0.017694123089313507,0.02326994948089123,9.482378005981445,[0. 0. 0. 0. 0. 0. 0. 0. 0.]
2.5541465282440186,-0.0024442016147077084,0.0027112849056720734,0.957454025745392,0.28856372833251953,[0. 0. 0. 0. 0. 0. 0. 0. 0.],0.07462576776742937,-0.012096764519810677,-0.02483577094972134,[0. 0. 0. 0. 0. 0. 0. 0. 0.],-0.1959875226020813,0.22366453707218173,9.671676635742188,[0. 0. 0. 0. 0. 0. 0. 0. 0.]
2.5741465091705322,-0.0020696546416729693,0.00342249614186585,0.9574030041694642,0.28872749209404,[0. 0. 0. 0. 0. 0. 0. 0. 0.],0.0685580149292946,-0.01565218158066273,-0.015997886657714844,[0. 0. 0. 0. 0. 0. 0. 0. 0.],-0.12220310419797899,0.5527839660644531,9.965830802917482,[0. 0. 0. 0. 0. 0. 0. 0. 0.]
2.594146490097046,-0.0017218657303601503,0.003990401513874531,0.9573749303817749,0.2888158857822419,[0. 0. 0. 0. 0. 0. 0. 0. 0.],0.05522668734192849,-0.012384355068206787,-0.005124509800225497,[0. 0. 0. 0. 0. 0. 0. 0. 0.],-0.3823167979717255,0.3152170777320862,9.73355007171631,[0. 0. 0. 0. 0. 0. 0. 0. 0.]
2.6141464710235596,-0.0013826390495523813,0.004432563204318286,0.9573707580566406,0.2888248264789582,[0. 0. 0. 0. 0. 0. 0. 0. 0.],0.04858449101448059,-0.011114777065813543,0.0003091991238761694,[0. 0. 0. 0. 0. 0. 0. 0. 0.],-0.2596082985401154,0.2962610721588135,9.6343469619751,[0. 0. 0. 0. 0. 0. 0. 0. 0.]
2.6341464519500732,-0.0010910484706982972,0.0047530517913401136,0.9573886990547181,0.2887613773345947,[0. 0. 0. 0. 0. 0. 0. 0. 0.],0.033452361822128296,-0.009730457328259947,0.008852032944560051,[0. 0. 0. 0. 0. 0. 0. 0. 0.],0.3733401894569397,0.33195143938064575,9.521494865417482,[0. 0. 0. 0. 0. 0. 0. 0. 0.]
2.6541473865509033,-0.0008252267143689097,0.0049113016575574875,0.9574289321899414,0.28862610459327703,[0. 0. 0. 0. 0. 0. 0. 0. 0.],0.01512095332145691,-0.01726299524307251,0.016281755641102794,[0. 0. 0. 0. 0. 0. 0. 0. 0.],-0.11309314519166948,0.5061308145523071,9.75953006744385,[0. 0. 0. 0. 0. 0. 0. 0. 0.]
2.674147605895996,-0.0006318266387097539,0.004923464730381966,0.9574896693229676,0.28842514753341675,[0. 0. 0. 0. 0. 0. 0. 0. 0.],-0.0007018447504378856,-0.01644343137741089,0.0226683933287859,[0. 0. 0. 0. 0. 0. 0. 0. 0.],-0.3060047924518586,0.2504591643810273,9.646928787231445,[0. 0. 0. 0. 0. 0. 0. 0. 0.]
2.6941475868225098,-0.000501166214235127,0.004822085611522198,0.9575686454772949,0.28816479444503784,[0. 0. 0. 0. 0. 0. 0. 0. 0.],-0.004728137515485287,-0.008645652793347837,0.02988800220191479,[0. 0. 0. 0. 0. 0. 0. 0. 0.],-0.0388309694826603,0.4942733645439148,9.664924621582031,[0. 0. 0. 0. 0. 0. 0. 0. 0.]
2.7141475677490234,-0.0004599986132234335,0.004578068852424622,0.9576700925827026,0.28783100843429565,[0. 0. 0. 0. 0. 0. 0. 0. 0.],-0.032593313604593284,0.00074729323387146,0.03483072295784951,[0. 0. 0. 0. 0. 0. 0. 0. 0.],-0.06282685697078705,0.443045973777771,9.812248229980469,[0. 0. 0. 0. 0. 0. 0. 0. 0.]
2.734147548675537,-0.0004900160129182042,0.004232435021549464,0.957785964012146,0.2874506711959839,[0. 0. 0. 0. 0. 0. 0. 0. 0.],-0.036343943327665336,-0.014632943086326124,0.03963933140039444,[0. 0. 0. 0. 0. 0. 0. 0. 0.],-0.18765525519847873,0.2752416133880615,9.79045295715332,[0. 0. 0. 0. 0. 0. 0. 0. 0.]
2.754147529602051,-0.0006039427244104446,0.0038205021992325783,0.95792555809021,0.2869913578033447,[0. 0. 0. 0. 0. 0. 0. 0. 0.],-0.04614739865064621,0.003411621088162065,0.05095377564430237,[0. 0. 0. 0. 0. 0. 0. 0. 0.],-0.007277170661836863,0.6089907288551332,9.737513542175295,[0. 0. 0. 0. 0. 0. 0. 0. 0.]
2.774148464202881,-0.0008066610316745938,0.0032925265841186047,0.9580816626548768,0.28647550940513616,[0. 0. 0. 0. 0. 0. 0. 0. 0.],-0.06486774235963823,0.015414506196975708,0.05614832788705826,[0. 0. 0. 0. 0. 0. 0. 0. 0.],-0.12622913718223572,0.4041714668273926,9.786166191101076,[0. 0. 0. 0. 0. 0. 0. 0. 0.]
2.7941484451293945,-0.0010582368122413757,0.0027300165966153145,0.9582560062408447,0.28589683771133423,[0. 0. 0. 0. 0. 0. 0. 0. 0.],-0.0595882572233677,0.014040619134902954,0.05895123258233071,[0. 0. 0. 0. 0. 0. 0. 0. 0.],0.07995019108057023,0.23807457089424133,9.592143058776857,[0. 0. 0. 0. 0. 0. 0. 0. 0.]
2.814148426055908,-0.001405423739925027,0.0020748090464621787,0.9584478139877319,0.2852568924427033,[0. 0. 0. 0. 0. 0. 0. 0. 0.],-0.07359087467193604,0.01592114567756653,0.0677459016442299,[0. 0. 0. 0. 0. 0. 0. 0. 0.],0.09744352847337724,0.328377366065979,9.74041748046875,[0. 0. 0. 0. 0. 0. 0. 0. 0.]
2.834148406982422,-0.001813572947867215,0.001373170758597553,0.9586589336395264,0.28454902768135076,[0. 0. 0. 0. 0. 0. 0. 0. 0.],-0.08334071189165117,0.01605600118637085,0.07483065873384477,[0. 0. 0. 0. 0. 0. 0. 0. 0.],-0.06861674785614014,0.19566285610198975,9.82302761077881,[0. 0. 0. 0. 0. 0. 0. 0. 0.]
2.8541483879089355,-0.002282171044498682,0.000637762190308422,0.958890438079834,0.2837668955326081,[0. 0. 0. 0. 0. 0. 0. 0. 0.],-0.08113384246826172,0.028432162478566173,0.08351580053567888,[0. 0. 0. 0. 0. 0. 0. 0. 0.],-0.1070343405008316,0.4161163568496704,9.726720809936523,[0. 0. 0. 0. 0. 0. 0. 0. 0.]
2.874148368835449,-0.0028001307509839535,-0.00013951357686892152,0.9591395854949951,0.28291955590248113,[0. 0. 0. 0. 0. 0. 0. 0. 0.],-0.09589791297912598,0.04080012813210488,0.09197667241096497,[0. 0. 0. 0. 0. 0. 0. 0. 0.],-0.11122854053974152,0.3740699291229248,9.78959369659424,[0. 0. 0. 0. 0. 0. 0. 0. 0.]
2.8941493034362793,-0.003338329493999481,-0.0009333713096566499,0.9594077467918397,0.2820017337799072,[0. 0. 0. 0. 0. 0. 0. 0. 0.],-0.08552522212266923,0.03603101149201394,0.09721221029758453,[0. 0. 0. 0. 0. 0. 0. 0. 0.],-0.004656117875128985,0.2427756041288376,9.734230041503906,[0. 0. 0. 0. 0. 0. 0. 0. 0.]
2.914149522781372,-0.003918429836630821,-0.0017368480330333116,0.9596962332725526,0.2810068726539612,[0. 0. 0. 0. 0. 0. 0. 0. 0.],-0.09605437517166138,0.033985834568738944,0.1040227860212326,[0. 0. 0. 0. 0. 0. 0. 0. 0.],-0.3727333843708039,0.11798164248466492,9.784743309020998,[0. 0. 0. 0. 0. 0. 0. 0. 0.]
2.9341495037078857,-0.004480187315493823,-0.002453991444781423,0.9600077271461488,0.2799273133277893,[0. 0. 0. 0. 0. 0. 0. 0. 0.],-0.08342862129211426,0.028901552781462673,0.11642352491617204,[0. 0. 0. 0. 0. 0. 0. 0. 0.],-0.013672767207026482,0.18113675713539124,9.80061435699463,[0. 0. 0. 0. 0. 0. 0. 0. 0.]
2.954150438308716,-0.005047860089689494,-0.003188882488757372,0.9603370428085327,0.278778612613678,[0. 0. 0. 0. 0. 0. 0. 0. 0.],-0.0928492397069931,0.029095547273755077,0.12125514447689056,[0. 0. 0. 0. 0. 0. 0. 0. 0.],-0.4853864312171936,0.2957551777362824,9.990043640136719,[0. 0. 0. 0. 0. 0. 0. 0. 0.]
2.9741504192352295,-0.005598413292318583,-0.0038169345352798705,0.9606829285621644,0.27756595611572266,[0. 0. 0. 0. 0. 0. 0. 0. 0.],-0.07649959623813629,0.031304359436035156,0.126767173409462,[0. 0. 0. 0. 0. 0. 0. 0. 0.],0.048642750829458244,0.16844470798969272,9.756888389587404,[0. 0. 0. 0. 0. 0. 0. 0. 0.]
2.994150400161743,-0.006114695686846972,-0.004412085283547641,0.9610446691513062,0.2762909829616547,[0. 0. 0. 0. 0. 0. 0. 0. 0.],-0.07545799762010576,0.03423765301704407,0.132214292883873,[0. 0. 0. 0. 0. 0. 0. 0. 0.],-0.41197714209556585,0.13765046000480652,9.886804580688477,[0. 0. 0. 0. 0. 0. 0. 0. 0.]
3.014150381088257,-0.006585821043699981,-0.004923327825963497,0.9614219665527344,0.2749555408954621,[0. 0. 0. 0. 0. 0. 0. 0. 0.],-0.052544474601745605,0.03915205970406533,0.1423888057470322,[0. 0. 0. 0. 0. 0. 0. 0. 0.],-0.19361665844917297,0.2913606464862824,10.043044090270998,[0. 0. 0. 0. 0. 0. 0. 0. 0.]
3.0341503620147705,-0.007016043644398452,-0.005395269487053157,0.9618158340454102,0.2735552191734314,[0. 0. 0. 0. 0. 0. 0. 0. 0.],-0.047707557678222656,0.03878847137093545,0.15075281262397766,[0. 0. 0. 0. 0. 0. 0. 0. 0.],-0.4216661751270295,0.17139020562171936,10.00142574310303,[0. 0. 0. 0. 0. 0. 0. 0. 0.]
3.0541412830352783,-0.007372228428721428,-0.00576305901631713,0.9622182250022889,0.27211934328079224,[0. 0. 0. 0. 0. 0. 0. 0. 0.],-0.02902001701295376,0.02844706736505032,0.14878734946250916,[0. 0. 0. 0. 0. 0. 0. 0. 0.],-0.11277274787425995,0.4304028451442719,9.9743127822876,[0. 0. 0. 0. 0. 0. 0. 0. 0.]
3.0741422176361084,-0.0076796659268438825,-0.006033691577613354,0.9626241326332093,0.27066525816917425,[0. 0. 0. 0. 0. 0. 0. 0. 0.],-0.02367198653519154,0.01377090997993946,0.15286581218242648,[0. 0. 0. 0. 0. 0. 0. 0. 0.],0.1486361771821976,0.08607681095600128,9.786567687988281,[0. 0. 0. 0. 0. 0. 0. 0. 0.]
3.094142436981201,-0.007884955033659935,-0.006197585724294186,0.9630341529846191,0.26919314265251165,[0. 0. 0. 0. 0. 0. 0. 0. 0.],-0.01816600747406483,0.01619383692741394,0.15351995825767517,[0. 0. 0. 0. 0. 0. 0. 0. 0.],-0.20800209045410156,-0.031433787196874625,9.855809211730959,[0. 0. 0. 0. 0. 0. 0. 0. 0.]
3.114142417907715,-0.008016979321837425,-0.006285977549850941,0.9634497165679932,0.2676964700222016,[0. 0. 0. 0. 0. 0. 0. 0. 0.],-0.0019297007238492372,0.009336324408650398,0.15352447330951693,[0. 0. 0. 0. 0. 0. 0. 0. 0.],-0.014800889417529106,-0.07430905848741533,9.804391860961914,[0. 0. 0. 0. 0. 0. 0. 0. 0.]
3.1341423988342285,-0.008046677336096764,-0.006309447810053825,0.963872253894806,0.2661696374416352,[0. 0. 0. 0. 0. 0. 0. 0. 0.],9.611251152819024e-05,-0.007350744213908912,0.16027763485908508,[0. 0. 0. 0. 0. 0. 0. 0. 0.],-0.2650942802429199,0.08555788546800615,9.992914199829102,[0. 0. 0. 0. 0. 0. 0. 0. 0.]
3.154142379760742,-0.007977837696671486,-0.006228994112461806,0.9643006324768066,0.26461732387542725,[0. 0. 0. 0. 0. 0. 0. 0. 0.],0.011067838408052923,-0.009874999523162842,0.16165898740291598,[0. 0. 0. 0. 0. 0. 0. 0. 0.],-0.2887506186962128,0.21206082403659823,9.97567367553711,[0. 0. 0. 0. 0. 0. 0. 0. 0.]
3.174142360687256,-0.0078671183437109,-0.0060919225215911865,0.9647339582443237,0.2630389928817749,[0. 0. 0. 0. 0. 0. 0. 0. 0.],0.006958098150789738,-0.012327733449637892,0.1660086661577225,[0. 0. 0. 0. 0. 0. 0. 0. 0.],-0.08602558821439744,-0.1685451865196228,9.872132301330568,[0. 0. 0. 0. 0. 0. 0. 0. 0.]
3.194143295288086,-0.007650067564100028,-0.005874171853065491,0.9651775360107422,0.2614185512065888,[0. 0. 0. 0. 0. 0. 0. 0. 0.],0.023640692234039307,-0.01824051328003407,0.16927123069763184,[0. 0. 0. 0. 0. 0. 0. 0. 0.],-0.3959777355194092,0.1902535855770111,9.99661159515381,[0. 0. 0. 0. 0. 0. 0. 0. 0.]
3.2141432762145996,-0.007387580815702678,-0.005652295425534248,0.9656236171722412,0.25977933406829834,[0. 0. 0. 0. 0. 0. 0. 0. 0.],0.021293761208653453,-0.026725234463810924,0.1706525683403015,[0. 0. 0. 0. 0. 0. 0. 0. 0.],-0.33486276865005493,0.2734487354755402,9.974464416503906,[0. 0. 0. 0. 0. 0. 0. 0. 0.]
3.2341432571411133,-0.0070592532865703115,-0.005369554739445449,0.9660751223564149,0.2581099271774292,[0. 0. 0. 0. 0. 0. 0. 0. 0.],0.02391711249947548,-0.03625899925827981,0.17454400658607483,[0. 0. 0. 0. 0. 0. 0. 0. 0.],-0.1424815058708191,0.28163230419158936,9.927269935607912,[0. 0. 0. 0. 0. 0. 0. 0. 0.]
3.254143238067627,-0.006692178547382355,-0.005061672069132328,0.9665369987487793,0.25639125704765325,[0. 0. 0. 0. 0. 0. 0. 0. 0.],0.03067478910088539,-0.028142338618636135,0.1808785051107407,[0. 0. 0. 0. 0. 0. 0. 0. 0.],-0.2814609110355378,0.21268303692340854,9.708289146423342,[0. 0. 0. 0. 0. 0. 0. 0. 0.]
3.2741432189941406,-0.006264850031584502,-0.004752598237246276,0.967009425163269,0.25462099909782415,[0. 0. 0. 0. 0. 0. 0. 0. 0.],0.036860257387161255,-0.03750623390078545,0.18565282225608826,[0. 0. 0. 0. 0. 0. 0. 0. 0.],-0.34705248475074774,0.3151070475578308,9.77457046508789,[0. 0. 0. 0. 0. 0. 0. 0. 0.]
3.2941431999206543,-0.005804373417049647,-0.004420089535415173,0.9674898982048036,0.2528050839900971,[0. 0. 0. 0. 0. 0. 0. 0. 0.],0.035236034542322166,-0.04280954971909524,0.18866437673568726,[0. 0. 0. 0. 0. 0. 0. 0. 0.],-0.16163665056228638,0.429520845413208,9.797434806823732,[0. 0. 0. 0. 0. 0. 0. 0. 0.]
3.3141441345214844,-0.0053595281206071385,-0.004107785876840354,0.967980146408081,0.25093674659729004,[0. 0. 0. 0. 0. 0. 0. 0. 0.],0.03392919898033142,-0.03180355206131936,0.20041990280151367,[0. 0. 0. 0. 0. 0. 0. 0. 0.],-0.14713525772094727,0.30142396688461304,9.707746505737305,[0. 0. 0. 0. 0. 0. 0. 0. 0.]
3.334144353866577,-0.004860617686063052,-0.0037950330879539256,0.9684779047966005,0.24902410805225375,[0. 0. 0. 0. 0. 0. 0. 0. 0.],0.04132464528083801,-0.042934726923704154,0.2033822685480118,[0. 0. 0. 0. 0. 0. 0. 0. 0.],-0.4554681479930878,0.26959502696990967,9.672041893005373,[0. 0. 0. 0. 0. 0. 0. 0. 0.]
3.354144334793091,-0.00439258199185133,-0.003485575783997774,0.9689890146255493,0.24704070389270785,[0. 0. 0. 0. 0. 0. 0. 0. 0.],0.031929463148117065,-0.03614426031708718,0.207432359457016,[0. 0. 0. 0. 0. 0. 0. 0. 0.],0.13413624465465548,0.3842006325721741,9.692195892333984,[0. 0. 0. 0. 0. 0. 0. 0. 0.]
3.3741443157196045,-0.003980542067438365,-0.0032227057963609695,0.9695093035697938,0.24500155448913574,[0. 0. 0. 0. 0. 0. 0. 0. 0.],0.034335259348154075,-0.02598017640411854,0.21661818027496338,[0. 0. 0. 0. 0. 0. 0. 0. 0.],-0.2721559405326843,0.4318417608737946,9.600476264953615,[0. 0. 0. 0. 0. 0. 0. 0. 0.]
3.394144296646118,-0.0035715640988200907,-0.0029751805122941737,0.9700393080711366,0.24290452897548678,[0. 0. 0. 0. 0. 0. 0. 0. 0.],0.0319853350520134,-0.03291815891861916,0.2231314480304718,[0. 0. 0. 0. 0. 0. 0. 0. 0.],-0.15730722248554233,0.37872689962387085,9.620100021362305,[0. 0. 0. 0. 0. 0. 0. 0. 0.]
3.414144277572632,-0.0032205462921410803,-0.0027795247733592987,0.9705831408500672,0.2407292127609253,[0. 0. 0. 0. 0. 0. 0. 0. 0.],0.02070217952132225,-0.025920568034052852,0.22882817685604098,[0. 0. 0. 0. 0. 0. 0. 0. 0.],0.053303614258766174,0.11230744421482086,9.575881958007812,[0. 0. 0. 0. 0. 0. 0. 0. 0.]
3.434145212173462,-0.0029196706600487232,-0.0026152909267693762,0.9711368083953857,0.2384914755821228,[0. 0. 0. 0. 0. 0. 0. 0. 0.],0.021241603419184688,-0.024078037589788437,0.2333253473043442,[0. 0. 0. 0. 0. 0. 0. 0. 0.],-0.4377798140048981,0.398165911436081,9.684305191040039,[0. 0. 0. 0. 0. 0. 0. 0. 0.]
3.4541451930999756,-0.002693648217245937,-0.0024927931372076277,0.9717009663581849,0.23618575930595398,[0. 0. 0. 0. 0. 0. 0. 0. 0.],0.013362618163228035,-0.01982748508453369,0.24296422302722934,[0. 0. 0. 0. 0. 0. 0. 0. 0.],0.01221831049770117,0.3677904009819031,9.671222686767578,[0. 0. 0. 0. 0. 0. 0. 0. 0.]
3.4741451740264893,-0.00253829755820334,-0.0024337854702025656,0.9722719788551332,0.23382680118083957,[0. 0. 0. 0. 0. 0. 0. 0. 0.],0.009313971735537054,-0.008426608517765999,0.24536778032779696,[0. 0. 0. 0. 0. 0. 0. 0. 0.],-0.12722736597061157,0.27610728144645696,9.729882240295412,[0. 0. 0. 0. 0. 0. 0. 0. 0.]
3.494145154953003,-0.002430639928206802,-0.0024602869525551796,0.9728495478630067,0.23141294717788696,[0. 0. 0. 0. 0. 0. 0. 0. 0.],-0.0038832433056086306,-0.01448989100754261,0.2503432631492615,[0. 0. 0. 0. 0. 0. 0. 0. 0.],-0.03952046856284142,0.46665635704994207,9.964876174926758,[0. 0. 0. 0. 0. 0. 0. 0. 0.]
3.5141451358795166,-0.00236375629901886,-0.0025502552744001154,0.9734323620796205,0.22894839942455295,[0. 0. 0. 0. 0. 0. 0. 0. 0.],-0.006780029274523258,-0.0025808818172663455,0.2581157088279724,[0. 0. 0. 0. 0. 0. 0. 0. 0.],0.13123804330825806,0.40115019679069525,9.83694076538086,[0. 0. 0. 0. 0. 0. 0. 0. 0.]
3.534146308898926,-0.0023619488347321753,-0.0027092348318547015,0.9740183949470521,0.2264401614665985,[0. 0. 0. 0. 0. 0. 0. 0. 0.],-0.015701353549957275,0.006110222078859806,0.25770744681358343,[0. 0. 0. 0. 0. 0. 0. 0. 0.],-0.34581804275512695,0.6183380484580995,9.944027900695803,[0. 0. 0. 0. 0. 0. 0. 0. 0.]
3.5541460514068604,-0.0024190240073949103,-0.002952328883111477,0.9746076464653016,0.223886638879776,[0. 0. 0. 0. 0. 0. 0. 0. 0.],-0.028902295976877213,0.011254102922976019,0.26576149463653564,[0. 0. 0. 0. 0. 0. 0. 0. 0.],-0.03218089416623116,0.3455783724784851,9.664106369018555,[0. 0. 0. 0. 0. 0. 0. 0. 0.]
3.574146270751953,-0.00253569008782506,-0.0032405024394392967,0.9751907587051392,0.22132770717144015,[0. 0. 0. 0. 0. 0. 0. 0. 0.],-0.033032894134521484,0.011496991850435736,0.2655245959758759,[0. 0. 0. 0. 0. 0. 0. 0. 0.],-0.5491385459899902,0.36898437142372137,9.805525779724123,[0. 0. 0. 0. 0. 0. 0. 0. 0.]
3.594146251678467,-0.002700084121897817,-0.00357060506939888,0.9757704734802246,0.21875061094760898,[0. 0. 0. 0. 0. 0. 0. 0. 0.],-0.03952383995056152,0.016031416133046154,0.26747363805770874,[0. 0. 0. 0. 0. 0. 0. 0. 0.],-0.5510036945343018,0.27855744957923895,9.869937896728516,[0. 0. 0. 0. 0. 0. 0. 0. 0.]
3.6141462326049805,-0.002899356186389923,-0.0039337906055152425,0.9763472080230713,0.21615310013294223,[0. 0. 0. 0. 0. 0. 0. 0. 0.],-0.04398525133728982,0.008753688074648382,0.26769864559173584,[0. 0. 0. 0. 0. 0. 0. 0. 0.],-0.7959588170051576,0.3975059390068054,9.915639877319336,[0. 0. 0. 0. 0. 0. 0. 0. 0.]
3.634146213531494,-0.0031697254162281756,-0.004329170566052199,0.9769126176834106,0.21357163786888123,[0. 0. 0. 0. 0. 0. 0. 0. 0.],-0.04204810038208962,0.009887665510177612,0.2634324729442597,[0. 0. 0. 0. 0. 0. 0. 0. 0.],-0.4015361964702607,0.08807556331157684,9.737251281738281,[0. 0. 0. 0. 0. 0. 0. 0. 0.]
3.654147148132324,-0.0034586691763252024,-0.004696632269769908,0.9774694442749023,0.21099652349948886,[0. 0. 0. 0. 0. 0. 0. 0. 0.],-0.04176945611834527,0.016904622316360474,0.26178884506225586,[0. 0. 0. 0. 0. 0. 0. 0. 0.],-0.21937216818332675,0.1181374192237854,9.812000274658203,[0. 0. 0. 0. 0. 0. 0. 0. 0.]
3.674147129058838,-0.003804180538281799,-0.005067395512014628,0.9780138731002808,0.20844322443008423,[0. 0. 0. 0. 0. 0. 0. 0. 0.],-0.05426705628633499,0.014645609073340895,0.26039111614227295,[0. 0. 0. 0. 0. 0. 0. 0. 0.],0.0645309016108513,0.126295804977417,9.666200637817383,[0. 0. 0. 0. 0. 0. 0. 0. 0.]
3.6941471099853516,-0.004174987319856883,-0.005403434392064811,0.9785470366477967,0.20590955018997192,[0. 0. 0. 0. 0. 0. 0. 0. 0.],-0.043290857225656516,0.025308882817626003,0.2588026523590088,[0. 0. 0. 0. 0. 0. 0. 0. 0.],0.0014438786311075094,0.19459569454193115,9.697100639343263,[0. 0. 0. 0. 0. 0. 0. 0. 0.]
3.7141470909118652,-0.004536218009889126,-0.005716147366911174,0.9790638089179994,0.2034231424331665,[0. 0. 0. 0. 0. 0. 0. 0. 0.],-0.03631711378693581,0.028029832988977432,0.25373473763465887,[0. 0. 0. 0. 0. 0. 0. 0. 0.],0.29322320222854614,0.11800026148557664,9.689933776855469,[0. 0. 0. 0. 0. 0. 0. 0. 0.]
3.734147071838379,-0.004929626360535622,-0.00596711877733469,0.9795663952827455,0.2009721249341965,[0. 0. 0. 0. 0. 0. 0. 0. 0.],-0.02376735582947731,0.0360056795179844,0.2519905865192414,[0. 0. 0. 0. 0. 0. 0. 0. 0.],0.2246190309524536,-0.1720162034034729,9.603700637817383,[0. 0. 0. 0. 0. 0. 0. 0. 0.]
3.7541470527648926,-0.005329098086804152,-0.006154969800263644,0.9800562858581543,0.1985534131526947,[0. 0. 0. 0. 0. 0. 0. 0. 0.],-0.022545458748936657,0.033470988273620605,0.2433300465345383,[0. 0. 0. 0. 0. 0. 0. 0. 0.],-0.13768769800662997,0.1607615351676941,10.014984130859375,[0. 0. 0. 0. 0. 0. 0. 0. 0.]
3.7741482257843018,-0.005726462230086327,-0.006274189800024033,0.9805325865745546,0.19617316126823425,[0. 0. 0. 0. 0. 0. 0. 0. 0.],-0.015687948092818264,0.0390179492533207,0.24442452192306519,[0. 0. 0. 0. 0. 0. 0. 0. 0.],0.002735147252678871,0.06447930634021759,10.005857467651367,[0. 0. 0. 0. 0. 0. 0. 0. 0.]
3.7941479682922363,-0.006122532766312362,-0.006311221048235893,0.9809952378273011,0.1938331872224808,[0. 0. 0. 0. 0. 0. 0. 0. 0.],0.002522021532058716,0.03829822316765786,0.23717060685157776,[0. 0. 0. 0. 0. 0. 0. 0. 0.],-0.016525767743587494,0.08494973927736284,10.023425102233888,[0. 0. 0. 0. 0. 0. 0. 0. 0.]
3.814148187637329,-0.0064968238584697255,-0.00627579540014267,0.9814409017562866,0.19155336916446689,[0. 0. 0. 0. 0. 0. 0. 0. 0.],-0.002862513298168779,0.0378929078578949,0.2351723611354828,[0. 0. 0. 0. 0. 0. 0. 0. 0.],0.39800214767456055,-0.05187499523162842,9.890807151794435,[0. 0. 0. 0. 0. 0. 0. 0. 0.]
3.8341481685638428,-0.0068450262770056725,-0.006153130903840065,0.9818720221519471,0.18932375311851501,[0. 0. 0. 0. 0. 0. 0. 0. 0.],0.003575533162802458,0.04494413360953332,0.22796761989593506,[0. 0. 0. 0. 0. 0. 0. 0. 0.],-0.06461983174085618,0.15633769333362582,9.99166011810303,[0. 0. 0. 0. 0. 0. 0. 0. 0.]
3.8541481494903564,-0.007163100875914097,-0.005964200012385845,0.9822903275489808,0.1871340721845627,[0. 0. 0. 0. 0. 0. 0. 0. 0.],0.014961511828005316,0.03867969289422036,0.22712424397468567,[0. 0. 0. 0. 0. 0. 0. 0. 0.],-0.23785826563835144,0.21637383103370667,10.021631240844727,[0. 0. 0. 0. 0. 0. 0. 0. 0.]
3.87414813041687,-0.007480924483388663,-0.0057364534586668015,0.9826953411102295,0.18499082326889038,[0. 0. 0. 0. 0. 0. 0. 0. 0.],0.01997575350105763,0.04680529236793518,0.21735356748104098,[0. 0. 0. 0. 0. 0. 0. 0. 0.],-0.1430061161518097,0.04589072242379189,9.810904502868654,[0. 0. 0. 0. 0. 0. 0. 0. 0.]
3.8941490650177,-0.00776380067691207,-0.005462845321744681,0.9830865263938905,0.18289633095264438,[0. 0. 0. 0. 0. 0. 0. 0. 0.],0.02281442098319531,0.04506482928991318,0.21595579385757446,[0. 0. 0. 0. 0. 0. 0. 0. 0.],-0.4257660508155823,0.022056752815842632,9.822652816772461,[0. 0. 0. 0. 0. 0. 0. 0. 0.]
3.914149045944214,-0.008002819493412971,-0.005173739977180958,0.9834645986557007,0.18085174262523654,[0. 0. 0. 0. 0. 0. 0. 0. 0.],0.017488747835159302,0.033550713211297996,0.20909830927848816,[0. 0. 0. 0. 0. 0. 0. 0. 0.],-0.5517911911010742,0.1441791206598282,9.935827255249023,[0. 0. 0. 0. 0. 0. 0. 0. 0.]
3.9341490268707275,-0.008211592212319374,-0.0048421439714729795,0.9838306307792665,0.17884856462478638,[0. 0. 0. 0. 0. 0. 0. 0. 0.],0.034707788378000266,0.03463924303650857,0.20302686095237732,[0. 0. 0. 0. 0. 0. 0. 0. 0.],-0.04388970881700516,-0.07938949018716814,9.682491302490234,[0. 0. 0. 0. 0. 0. 0. 0. 0.]
3.954149007797241,-0.008429269306361677,-0.004526096861809493,0.9841867089271547,0.17687660455703735,[0. 0. 0. 0. 0. 0. 0. 0. 0.],0.02703741751611233,0.03403202444314957,0.20379652082920077,[0. 0. 0. 0. 0. 0. 0. 0. 0.],-0.16390487551689148,-0.19767633080482483,9.650156974792482,[0. 0. 0. 0. 0. 0. 0. 0. 0.]
3.974148988723755,-0.008578669279813766,-0.00418755365535617,0.9845327138900757,0.17494067549705505,[0. 0. 0. 0. 0. 0. 0. 0. 0.],0.03233924880623818,0.02162531018257141,0.19808337092399597,[0. 0. 0. 0. 0. 0. 0. 0. 0.],-0.09401418268680573,0.02945933304727078,9.633317947387695,[0. 0. 0. 0. 0. 0. 0. 0. 0.]
3.9941489696502686,-0.008698211051523687,-0.0038932180032134056,0.9848712682723999,0.1730268895626068,[0. 0. 0. 0. 0. 0. 0. 0. 0.],0.023939460515975952,0.007865578867495062,0.1969851851463318,[0. 0. 0. 0. 0. 0. 0. 0. 0.],-0.10065320134162903,-0.1867072582244873,9.502922058105469,[0. 0. 0. 0. 0. 0. 0. 0. 0.]
4.014149188995361,-0.008780261501669884,-0.003597050439566374,0.9852023124694824,0.17113427817821505,[0. 0. 0. 0. 0. 0. 0. 0. 0.],0.022367391735315323,0.005082041025161743,0.19544441998004916,[0. 0. 0. 0. 0. 0. 0. 0. 0.],-0.38100242614746094,-0.008158572949469091,9.805532455444336,[0. 0. 0. 0. 0. 0. 0. 0. 0.]
4.034149169921875,-0.008839394897222519,-0.0033470520284026866,0.9855231046676636,0.16927871108055115,[0. 0. 0. 0. 0. 0. 0. 0. 0.],0.012054297141730787,0.002520531415939331,0.18980132043361667,[0. 0. 0. 0. 0. 0. 0. 0. 0.],-0.2697944343090058,-0.2216407060623169,9.76958751678467,[0. 0. 0. 0. 0. 0. 0. 0. 0.]
4.054141044616699,-0.008854552172124388,-0.0031650403980165724,0.9858400225639344,0.16742540895938876,[0. 0. 0. 0. 0. 0. 0. 0. 0.],0.0069476678036153325,-0.0049561262130737305,0.1872144639492035,[0. 0. 0. 0. 0. 0. 0. 0. 0.],-0.1653186231851578,0.10031109303236009,9.752560615539553,[0. 0. 0. 0. 0. 0. 0. 0. 0.]
4.074141979217529,-0.00881719682365656,-0.0030284374952316284,0.9861414432525635,0.16564667224884033,[0. 0. 0. 0. 0. 0. 0. 0. 0.],0.004556030035018921,-0.006000698078423739,0.1829870045185089,[0. 0. 0. 0. 0. 0. 0. 0. 0.],-0.5950395464897157,0.058175697922706604,9.725698471069336,[0. 0. 0. 0. 0. 0. 0. 0. 0.]
4.094141960144043,-0.008707520551979544,-0.0029873987659811974,0.986434042453766,0.16390156745910645,[0. 0. 0. 0. 0. 0. 0. 0. 0.],0.005743652582168579,-0.014117361977696419,0.17845408618450168,[0. 0. 0. 0. 0. 0. 0. 0. 0.],-0.2670607566833496,-0.09265287220478058,9.725105285644531,[0. 0. 0. 0. 0. 0. 0. 0. 0.]
4.114141941070557,-0.008544887416064741,-0.0030111591331660748,0.9867200255393983,0.16217923164367676,[0. 0. 0. 0. 0. 0. 0. 0. 0.],-0.005127490032464267,-0.013181569054722786,0.17877970635890963,[0. 0. 0. 0. 0. 0. 0. 0. 0.],-0.3641254007816315,0.10198483616113664,9.812369346618654,[0. 0. 0. 0. 0. 0. 0. 0. 0.]
4.13414192199707,-0.008333991281688215,-0.0031074534635990862,0.9869979023933412,0.16048751771450046,[0. 0. 0. 0. 0. 0. 0. 0. 0.],-0.012640655040740967,-0.029686098918318752,0.17446802556514743,[0. 0. 0. 0. 0. 0. 0. 0. 0.],-0.3180598914623261,-0.04222651943564416,9.757708549499513,[0. 0. 0. 0. 0. 0. 0. 0. 0.]
4.154141902923584,-0.008102946914732458,-0.003247962566092611,0.9872709512710571,0.1588091254234314,[0. 0. 0. 0. 0. 0. 0. 0. 0.],-0.011005996726453306,-0.03430991619825363,0.1739345341920853,[0. 0. 0. 0. 0. 0. 0. 0. 0.],-0.2987992465496064,-0.12125164270401001,9.634827613830568,[0. 0. 0. 0. 0. 0. 0. 0. 0.]
4.174142122268677,-0.007807871792465449,-0.003426766721531749,0.9875361919403076,0.1571611762046814,[0. 0. 0. 0. 0. 0. 0. 0. 0.],-0.01516193151473999,-0.034932784736156464,0.17222537100315097,[0. 0. 0. 0. 0. 0. 0. 0. 0.],-0.41487085819244385,0.1256220042705536,9.769528388977053,[0. 0. 0. 0. 0. 0. 0. 0. 0.]
4.194143056869507,-0.007471319288015366,-0.003663479117676616,0.9877952337265015,0.15553593635559082,[0. 0. 0. 0. 0. 0. 0. 0. 0.],-0.03050268068909645,-0.031380359083414085,0.16580000519752502,[0. 0. 0. 0. 0. 0. 0. 0. 0.],-0.10631809383630754,-0.13239964842796326,9.722755432128906,[0. 0. 0. 0. 0. 0. 0. 0. 0.]
4.2141430377960205,-0.007074988912791015,-0.003912694752216339,0.9880498647689819,0.15392392873764038,[0. 0. 0. 0. 0. 0. 0. 0. 0.],-0.02089888416230679,-0.056128211319446564,0.1684717833995819,[0. 0. 0. 0. 0. 0. 0. 0. 0.],-0.3139879107475281,-0.0879768431186676,9.845082283020021,[0. 0. 0. 0. 0. 0. 0. 0. 0.]
4.234143018722534,-0.006678778212517501,-0.004186902660876513,0.9883005023002626,0.15231682360172275,[0. 0. 0. 0. 0. 0. 0. 0. 0.],-0.021341443061828613,-0.04801750555634499,0.1675032079219818,[0. 0. 0. 0. 0. 0. 0. 0. 0.],-0.24651519954204562,-0.08238244801759721,9.701444625854492,[0. 0. 0. 0. 0. 0. 0. 0. 0.]
4.254142999649048,-0.006260647438466549,-0.004465394653379917,0.9885484576225282,0.1507089287042618,[0. 0. 0. 0. 0. 0. 0. 0. 0.],-0.02844333834946156,-0.04600584879517556,0.167190283536911,[0. 0. 0. 0. 0. 0. 0. 0. 0.],-0.3824443221092224,0.08524113893508911,9.871843338012695,[0. 0. 0. 0. 0. 0. 0. 0. 0.]
4.2741429805755615,-0.0058050695806741714,-0.0047053550370037564,0.9887958168983461,0.14908780157566073,[0. 0. 0. 0. 0. 0. 0. 0. 0.],-0.02235397696495056,-0.053546581417322166,0.1661837100982666,[0. 0. 0. 0. 0. 0. 0. 0. 0.],-0.1006714403629303,-0.2836698293685913,9.701631546020508,[0. 0. 0. 0. 0. 0. 0. 0. 0.]
4.294142961502075,-0.005343095865100623,-0.004906428977847099,0.9890407919883729,0.14746510982513428,[0. 0. 0. 0. 0. 0. 0. 0. 0.],-0.015549363568425179,-0.0525549165904522,0.16613231599330905,[0. 0. 0. 0. 0. 0. 0. 0. 0.],0.0044341091997921476,0.01696957834064961,9.922553062438967,[0. 0. 0. 0. 0. 0. 0. 0. 0.]
4.314143896102905,-0.004911833442747593,-0.005055174231529236,0.9892806410789491,0.14585864543914795,[0. 0. 0. 0. 0. 0. 0. 0. 0.],-0.017338991165161133,-0.0518113486468792,0.16966462135314941,[0. 0. 0. 0. 0. 0. 0. 0. 0.],-0.326346755027771,-0.12085386365652086,9.787668228149414,[0. 0. 0. 0. 0. 0. 0. 0. 0.]
4.334143877029419,-0.004493045620620251,-0.005160174798220397,0.9895216226577759,0.1442261040210724,[0. 0. 0. 0. 0. 0. 0. 0. 0.],-0.008852780796587469,-0.03611594811081887,0.1709587574005127,[0. 0. 0. 0. 0. 0. 0. 0. 0.],-0.524799108505249,0.2083587944507599,9.927873611450195,[0. 0. 0. 0. 0. 0. 0. 0. 0.]
4.354143857955933,-0.0040896167047321805,-0.005201772786676884,0.9897632598876953,0.14256754517555237,[0. 0. 0. 0. 0. 0. 0. 0. 0.],0.0019647183362394576,-0.03533810377120972,0.17196314036846164,[0. 0. 0. 0. 0. 0. 0. 0. 0.],-0.9861770272254945,0.13448874652385714,10.071150779724123,[0. 0. 0. 0. 0. 0. 0. 0. 0.]
4.374143838882446,-0.0036934157833456993,-0.0051960088312625885,0.9900061488151551,0.1408819556236267,[0. 0. 0. 0. 0. 0. 0. 0. 0.],0.004419684410095215,-0.032615665346384055,0.1773953586816788,[0. 0. 0. 0. 0. 0. 0. 0. 0.],-0.2384908050298691,0.0858808159828186,10.050983428955078,[0. 0. 0. 0. 0. 0. 0. 0. 0.]
4.39414381980896,-0.003355470718815923,-0.005134367384016514,0.9902517795562744,0.13915559649467468,[0. 0. 0. 0. 0. 0. 0. 0. 0.],0.016184898093342785,-0.015883147716522217,0.18158783018589023,[0. 0. 0. 0. 0. 0. 0. 0. 0.],-0.4950286448001862,0.0812576934695244,9.878461837768555,[0. 0. 0. 0. 0. 0. 0. 0. 0.]
4.414144039154053,-0.0030690727289766078,-0.005065425764769317,0.9904993772506714,0.13739024102687838,[0. 0. 0. 0. 0. 0. 0. 0. 0.],0.004658102989196777,-0.018431246280670166,0.17935784161090854,[0. 0. 0. 0. 0. 0. 0. 0. 0.],-0.8012917637825013,0.10492762923240662,10.050356864929201,[0. 0. 0. 0. 0. 0. 0. 0. 0.]
4.434144973754883,-0.002813607687130571,-0.004958733450621367,0.9907484650611879,0.13559135794639587,[0. 0. 0. 0. 0. 0. 0. 0. 0.],0.0069402167573571205,-0.021466618403792385,0.18756318092346191,[0. 0. 0. 0. 0. 0. 0. 0. 0.],-0.7618682980537416,-0.23876896500587463,10.05453872680664,[0. 0. 0. 0. 0. 0. 0. 0. 0.]
4.4541449546813965,-0.0026333811692893505,-0.004872444085776806,0.9910010099411011,0.13374143838882446,[0. 0. 0. 0. 0. 0. 0. 0. 0.],0.013608488254249098,-0.021585825830698013,0.19632357358932495,[0. 0. 0. 0. 0. 0. 0. 0. 0.],-0.740574836730957,-0.15846930444240573,9.857128143310547,[0. 0. 0. 0. 0. 0. 0. 0. 0.]
4.47414493560791,-0.002482348354533315,-0.004793767351657153,0.9912565350532533,0.13183943927288058,[0. 0. 0. 0. 0. 0. 0. 0. 0.],-0.007463992107659579,-0.013498961925506592,0.19600094854831698,[0. 0. 0. 0. 0. 0. 0. 0. 0.],-0.4466080069541931,-0.1463773250579834,9.82769775390625,[0. 0. 0. 0. 0. 0. 0. 0. 0.]
4.494144916534424,-0.0024253996089100838,-0.004707148764282466,0.9915137887001039,0.1298957318067551,[0. 0. 0. 0. 0. 0. 0. 0. 0.],0.0038661067374050617,-0.008758902549743652,0.19937832653522494,[0. 0. 0. 0. 0. 0. 0. 0. 0.],-0.3756311535835266,-0.24250005185604098,9.754072189331055,[0. 0. 0. 0. 0. 0. 0. 0. 0.]
4.5141448974609375,-0.0024471846409142017,-0.0046610841527581215,0.9917718172073364,0.12791047990322116,[0. 0. 0. 0. 0. 0. 0. 0. 0.],-0.0047147274017333984,-0.01427233498543501,0.20562487840652466,[0. 0. 0. 0. 0. 0. 0. 0. 0.],-0.09252211451530457,-0.06277216225862504,9.81829357147217,[0. 0. 0. 0. 0. 0. 0. 0. 0.]
4.534145832061768,-0.0025062868371605873,-0.004627997055649757,0.9920315742492676,0.12587970495224,[0. 0. 0. 0. 0. 0. 0. 0. 0.],3.352761632413604e-05,6.631016731262207e-05,0.2091921865940094,[0. 0. 0. 0. 0. 0. 0. 0. 0.],0.05657423287630081,-0.04733103141188622,9.557007789611818,[0. 0. 0. 0. 0. 0. 0. 0. 0.]
4.554145812988281,-0.0025873291306197643,-0.0046189771965146065,0.9922902584075928,0.12382548302412034,[0. 0. 0. 0. 0. 0. 0. 0. 0.],-0.0021785499993711714,0.009877234697341919,0.21158386766910556,[0. 0. 0. 0. 0. 0. 0. 0. 0.],0.27420774102211004,0.005977199412882328,9.682374954223633,[0. 0. 0. 0. 0. 0. 0. 0. 0.]
4.574145793914795,-0.0027293490711599593,-0.0046130442060530194,0.9925491213798524,0.12172926217317583,[0. 0. 0. 0. 0. 0. 0. 0. 0.],0.003250688314437866,0.02104565128684044,0.21814630925655368,[0. 0. 0. 0. 0. 0. 0. 0. 0.],0.09030147641897203,-0.0031653563492000103,9.701279640197756,[0. 0. 0. 0. 0. 0. 0. 0. 0.]
4.594145774841309,-0.002931244904175401,-0.004630198236554862,0.9928069114685059,0.11960294842720032,[0. 0. 0. 0. 0. 0. 0. 0. 0.],-0.006467104423791171,0.01216307282447815,0.22163318097591403,[0. 0. 0. 0. 0. 0. 0. 0. 0.],-0.0018703544046729803,-0.12239604443311693,9.883807182312013,[0. 0. 0. 0. 0. 0. 0. 0. 0.]
4.614145755767822,-0.003180400002747774,-0.0046548908576369286,0.9930597543716431,0.11747728288173676,[0. 0. 0. 0. 0. 0. 0. 0. 0.],-0.002142787212505937,0.026626139879226685,0.22177919745445251,[0. 0. 0. 0. 0. 0. 0. 0. 0.],0.23042786121368408,-0.03119883127510548,9.825172424316406,[0. 0. 0. 0. 0. 0. 0. 0. 0.]
4.634145736694336,-0.003465822897851467,-0.0047012590803205976,0.9933097958564759,0.11533365398645402,[0. 0. 0. 0. 0. 0. 0. 0. 0.],-0.011299551464617254,0.039242953062057495,0.22163169085979464,[0. 0. 0. 0. 0. 0. 0. 0. 0.],-0.24492153525352478,0.21016548573970797,9.876470565795898,[0. 0. 0. 0. 0. 0. 0. 0. 0.]
4.654146909713745,-0.003748288843780756,-0.004773079883307219,0.9935567378997803,0.11317559331655504,[0. 0. 0. 0. 0. 0. 0. 0. 0.],-0.016196070238947872,0.03960802778601647,0.22276711463928223,[0. 0. 0. 0. 0. 0. 0. 0. 0.],0.32222652435302734,-0.039989173412323,9.85067367553711,[0. 0. 0. 0. 0. 0. 0. 0. 0.]
4.674146890640259,-0.004075068049132824,-0.004865820053964854,0.9937979578971864,0.1110224574804306,[0. 0. 0. 0. 0. 0. 0. 0. 0.],-0.012750924564898016,0.042094290256500244,0.22261591255664828,[0. 0. 0. 0. 0. 0. 0. 0. 0.],-0.36346337199211126,-0.10337015986442566,9.820656776428224,[0. 0. 0. 0. 0. 0. 0. 0. 0.]
4.6941468715667725,-0.0044220113195478925,-0.0049757761880755424,0.9940344095230103,0.10886579751968384,[0. 0. 0. 0. 0. 0. 0. 0. 0.],-0.021791456267237667,0.04107430577278137,0.22312328219413757,[0. 0. 0. 0. 0. 0. 0. 0. 0.],-0.21455487608909607,0.30751332640647894,10.050195693969727,[0. 0. 0. 0. 0. 0. 0. 0. 0.]
4.714146852493286,-0.0047865966334939,-0.005113643128424884,0.9942656159400941,0.10671114921569824,[0. 0. 0. 0. 0. 0. 0. 0. 0.],-0.01840740442276001,0.05640164390206338,0.22509023547172546,[0. 0. 0. 0. 0. 0. 0. 0. 0.],-0.6252013444900513,0.13822972774505615,9.82607650756836,[0. 0. 0. 0. 0. 0. 0. 0. 0.]
4.7341468334198,-0.005115156061947346,-0.00525782397016883,0.9944912195205688,0.10456646978855133,[0. 0. 0. 0. 0. 0. 0. 0. 0.],-0.02866387367248535,0.04020705819129944,0.22038744390010837,[0. 0. 0. 0. 0. 0. 0. 0. 0.],-1.0273669958114626,0.04865577071905136,9.967751502990724,[0. 0. 0. 0. 0. 0. 0. 0. 0.]
4.7541468143463135,-0.005420488305389881,-0.005395190790295601,0.994713306427002,0.1024078205227852,[0. 0. 0. 0. 0. 0. 0. 0. 0.],-0.026717783883214,0.03818943351507187,0.22273735702037814,[0. 0. 0. 0. 0. 0. 0. 0. 0.],-0.8271790146827699,0.23595525324344638,10.218390464782717,[0. 0. 0. 0. 0. 0. 0. 0. 0.]
4.7741477489471436,-0.005744720809161663,-0.0055055152624845505,0.9949297308921815,0.1002589613199234,[0. 0. 0. 0. 0. 0. 0. 0. 0.],-0.006233155261725188,0.03948136419057846,0.22097152471542358,[0. 0. 0. 0. 0. 0. 0. 0. 0.],-1.0848075151443484,0.08095863461494446,9.90389633178711,[0. 0. 0. 0. 0. 0. 0. 0. 0.]
4.794147729873657,-0.006050916854292155,-0.005610339343547821,0.9951385855674745,0.09813813865184784,[0. 0. 0. 0. 0. 0. 0. 0. 0.],-0.012038649059832098,0.03006383776664734,0.2174683064222336,[0. 0. 0. 0. 0. 0. 0. 0. 0.],-0.8780871629714966,0.110281340777874,9.886416435241701,[0. 0. 0. 0. 0. 0. 0. 0. 0.]
4.814147710800171,-0.006349453702569008,-0.005710461176931858,0.995342493057251,0.0960281640291214,[0. 0. 0. 0. 0. 0. 0. 0. 0.],-0.020699204877018932,0.030689688399434093,0.21565929055213928,[0. 0. 0. 0. 0. 0. 0. 0. 0.],-0.732155442237854,-0.03168845549225808,9.97840213775635,[0. 0. 0. 0. 0. 0. 0. 0. 0.]
4.834147691726685,-0.006641722284257412,-0.005780477542430163,0.9955387115478516,0.09394577890634538,[0. 0. 0. 0. 0. 0. 0. 0. 0.],-0.012639164924621582,0.026134403422474865,0.21297559142112732,[0. 0. 0. 0. 0. 0. 0. 0. 0.],-0.9280394911766053,0.10780238360166551,9.928430557250977,[0. 0. 0. 0. 0. 0. 0. 0. 0.]
4.854147672653198,-0.006911426782608032,-0.005837535019963981,0.9957305788993837,0.09186508506536485,[0. 0. 0. 0. 0. 0. 0. 0. 0.],-0.007985531352460386,0.023639943450689316,0.21232736110687256,[0. 0. 0. 0. 0. 0. 0. 0. 0.],-0.873803973197937,0.08044420182704926,10.000821113586428,[0. 0. 0. 0. 0. 0. 0. 0. 0.]
4.874147653579712,-0.007160259410738945,-0.00590937351807952,0.9959179759025575,0.08978544920682908,[0. 0. 0. 0. 0. 0. 0. 0. 0.],-0.0173225998878479,0.02040490694344044,0.21076276898384094,[0. 0. 0. 0. 0. 0. 0. 0. 0.],-0.7754356861114502,-0.0730070397257805,10.05738162994385,[0. 0. 0. 0. 0. 0. 0. 0. 0.]
4.894148826599121,-0.007391700521111488,-0.005955181550234557,0.996101200580597,0.08770713955163957,[0. 0. 0. 0. 0. 0. 0. 0. 0.],-0.00910833477973938,0.02225041389465332,0.2125784903764725,[0. 0. 0. 0. 0. 0. 0. 0. 0.],-0.9218480587005615,0.05812554806470871,10.030457496643068,[0. 0. 0. 0. 0. 0. 0. 0. 0.]
4.914148807525635,-0.007610608357936145,-0.006008334923535586,0.9962794780731201,0.08563777804374695,[0. 0. 0. 0. 0. 0. 0. 0. 0.],-0.01573413610458374,0.018743427470326427,0.21498724818229675,[0. 0. 0. 0. 0. 0. 0. 0. 0.],-0.7022601366043091,-0.00698015419766307,10.058298110961914,[0. 0. 0. 0. 0. 0. 0. 0. 0.]
4.934148788452148,-0.007805831264704467,-0.0060428581200540074,0.996455490589142,0.08354491740465166,[0. 0. 0. 0. 0. 0. 0. 0. 0.],-0.012508034706115723,0.020600112155079845,0.21742807328701022,[0. 0. 0. 0. 0. 0. 0. 0. 0.],-0.7071075439453125,-0.05994238331913949,10.126217842102053,[0. 0. 0. 0. 0. 0. 0. 0. 0.]
4.9541497230529785,-0.007975186221301557,-0.006058991421014071,0.996626615524292,0.08145753294229509,[0. 0. 0. 0. 0. 0. 0. 0. 0.],-0.005305671598762275,0.018140122294425964,0.21627761423587802,[0. 0. 0. 0. 0. 0. 0. 0. 0.],-0.8400086164474487,0.07038739323616028,10.090687751770021,[0. 0. 0. 0. 0. 0. 0. 0. 0.]
4.974149703979492,-0.00812493357807398,-0.006122532766312362,0.9967932105064393,0.07937372475862504,[0. 0. 0. 0. 0. 0. 0. 0. 0.],-0.011305510066449644,0.014510006643831732,0.213593989610672,[0. 0. 0. 0. 0. 0. 0. 0. 0.],-0.7592977881431581,-0.00433465838432312,9.962840080261232,[0. 0. 0. 0. 0. 0. 0. 0. 0.]
4.994149684906006,-0.008261984214186668,-0.006179594434797764,0.9969555139541626,0.0772877186536789,[0. 0. 0. 0. 0. 0. 0. 0. 0.],-0.013336539268493652,0.01755878515541554,0.21356716752052307,[0. 0. 0. 0. 0. 0. 0. 0. 0.],-0.5026650428771973,0.146034836769104,10.087924003601076,[0. 0. 0. 0. 0. 0. 0. 0. 0.]
5.0141496658325195,-0.008406355045735838,-0.006271279416978359,0.9971118569374086,0.07522001117467882,[0. 0. 0. 0. 0. 0. 0. 0. 0.],-0.00623017642647028,0.027982151135802272,0.20979423820972445,[0. 0. 0. 0. 0. 0. 0. 0. 0.],-0.2823311686515808,-0.09530054032802582,9.792639732360842,[0. 0. 0. 0. 0. 0. 0. 0. 0.]
5.034149646759033,-0.008535070344805717,-0.006392057053744793,0.9972631335258485,0.0731659159064293,[0. 0. 0. 0. 0. 0. 0. 0. 0.],-0.015974044799804688,0.02189651317894459,0.2123914659023285,[0. 0. 0. 0. 0. 0. 0. 0. 0.],-0.2268529981374741,-0.11618704348802568,9.721737861633303,[0. 0. 0. 0. 0. 0. 0. 0. 0.]
5.054140567779541,-0.008609577082097532,-0.006544787436723709,0.9974108338356019,0.0710984840989113,[0. 0. 0. 0. 0. 0. 0. 0. 0.],-0.0060081477276980886,0.011143834330141546,0.21239891648292542,[0. 0. 0. 0. 0. 0. 0. 0. 0.],-0.14115346968173983,-0.04956609755754471,9.672970771789553,[0. 0. 0. 0. 0. 0. 0. 0. 0.]
5.07414174079895,-0.008687276393175125,-0.006760350428521633,0.9975525140762329,0.06905400007963182,[0. 0. 0. 0. 0. 0. 0. 0. 0.],-0.019952656701207164,-0.0016927721444517374,0.2078436762094498,[0. 0. 0. 0. 0. 0. 0. 0. 0.],-0.4128960072994233,-0.3130694925785065,9.599623680114748,[0. 0. 0. 0. 0. 0. 0. 0. 0.]
5.094141721725464,-0.008746937848627569,-0.006954396143555641,0.9976885318756104,0.06703002750873566,[0. 0. 0. 0. 0. 0. 0. 0. 0.],-0.025378171354532242,0.004028529394418002,0.20687063038349154,[0. 0. 0. 0. 0. 0. 0. 0. 0.],-0.43257310986518865,-0.10556556284427643,9.816539764404297,[0. 0. 0. 0. 0. 0. 0. 0. 0.]
5.1141417026519775,-0.00880188960582018,-0.00719101494178176,0.9978195428848267,0.06501721590757371,[0. 0. 0. 0. 0. 0. 0. 0. 0.],-0.03972948342561722,-0.007717312779277564,0.20463544130325317,[0. 0. 0. 0. 0. 0. 0. 0. 0.],-0.3783001005649567,-0.32822963595390325,9.85770034790039,[0. 0. 0. 0. 0. 0. 0. 0. 0.]
5.134141683578491,-0.008839624002575874,-0.007459214422851802,0.9979444146156312,0.06303396075963975,[0. 0. 0. 0. 0. 0. 0. 0. 0.],-0.0347137451171875,-0.005504489876329899,0.20343740284442904,[0. 0. 0. 0. 0. 0. 0. 0. 0.],-0.044166967272758484,0.04207248240709305,9.69667720794678,[0. 0. 0. 0. 0. 0. 0. 0. 0.]
5.154141664505005,-0.008857854641973974,-0.007763404864817859,0.9980641603469849,0.06107250601053238,[0. 0. 0. 0. 0. 0. 0. 0. 0.],-0.04620254784822464,-0.005365909542888404,0.19836503267288208,[0. 0. 0. 0. 0. 0. 0. 0. 0.],-0.5737792253494263,-0.17006990313529968,9.739434242248537,[0. 0. 0. 0. 0. 0. 0. 0. 0.]
5.1741416454315186,-0.008842828683555128,-0.008057338185608389,0.998178243637085,0.059142660349607475,[0. 0. 0. 0. 0. 0. 0. 0. 0.],-0.03170221298933029,-0.0013783575268462302,0.19431488215923312,[0. 0. 0. 0. 0. 0. 0. 0. 0.],-0.08197551965713501,-0.035617168992757804,9.795639991760256,[0. 0. 0. 0. 0. 0. 0. 0. 0.]
5.194142580032349,-0.008788742125034332,-0.00835328921675682,0.9982866048812866,0.05724643915891647,[0. 0. 0. 0. 0. 0. 0. 0. 0.],-0.032481554895639426,-0.0071600088849663734,0.19447655975818637,[0. 0. 0. 0. 0. 0. 0. 0. 0.],-0.0777839720249176,-0.13951581716537476,9.778299331665039,[0. 0. 0. 0. 0. 0. 0. 0. 0.]
5.214142560958862,-0.008710158057510855,-0.008643000386655332,0.9983900785446167,0.05537907406687737,[0. 0. 0. 0. 0. 0. 0. 0. 0.],-0.027094781398773193,-0.014069676399230957,0.18916653096675876,[0. 0. 0. 0. 0. 0. 0. 0. 0.],-0.08039345592260362,-0.25318858027458196,9.537206649780273,[0. 0. 0. 0. 0. 0. 0. 0. 0.]
5.234142780303955,-0.008588354103267195,-0.008926148526370527,0.998489260673523,0.05353517830371857,[0. 0. 0. 0. 0. 0. 0. 0. 0.],-0.037124745547771454,-0.015684960409998897,0.18912774324417114,[0. 0. 0. 0. 0. 0. 0. 0. 0.],-0.33267411589622503,-0.12749774754047397,9.824087142944336,[0. 0. 0. 0. 0. 0. 0. 0. 0.]
5.254142761230469,-0.00840974133461714,-0.009173140861094,0.9985836148262025,0.051732197403907776,[0. 0. 0. 0. 0. 0. 0. 0. 0.],-0.027360027655959133,-0.029668215662240982,0.18037709593772888,[0. 0. 0. 0. 0. 0. 0. 0. 0.],-0.3239677846431733,-0.3010031878948212,9.802083015441896,[0. 0. 0. 0. 0. 0. 0. 0. 0.]
5.274142742156982,-0.00820955913513899,-0.009388020262122154,0.9986729621887207,0.049968890845775604,[0. 0. 0. 0. 0. 0. 0. 0. 0.],-0.018295645713806152,-0.02642721496522427,0.18024221062660217,[0. 0. 0. 0. 0. 0. 0. 0. 0.],-0.5571337938308716,0.054163474589586265,9.776465415954592,[0. 0. 0. 0. 0. 0. 0. 0. 0.]
5.294142723083496,-0.007957736961543562,-0.009548181667923927,0.9987582564353944,0.048249769955873496,[0. 0. 0. 0. 0. 0. 0. 0. 0.],-0.011035798117518425,-0.019794702529907227,0.17347858846187594,[0. 0. 0. 0. 0. 0. 0. 0. 0.],-0.580339014530182,-0.14438246190547946,9.850860595703125,[0. 0. 0. 0. 0. 0. 0. 0. 0.]
5.314143657684326,-0.007657693699002266,-0.00967755261808634,0.9988391995429994,0.04656514897942544,[0. 0. 0. 0. 0. 0. 0. 0. 0.],-0.007049740292131901,-0.022147597745060924,0.17029419541358948,[0. 0. 0. 0. 0. 0. 0. 0. 0.],-0.146838054060936,-0.15033835172653198,9.839062690734865,[0. 0. 0. 0. 0. 0. 0. 0. 0.]
5.33414363861084,-0.007306274957954884,-0.009757142513990402,0.9989166259765625,0.04491313174366952,[0. 0. 0. 0. 0. 0. 0. 0. 0.],-0.004665554501116276,-0.032137338072061546,0.1675255745649338,[0. 0. 0. 0. 0. 0. 0. 0. 0.],-0.29189118742942816,-0.33246669173240667,9.803696632385256,[0. 0. 0. 0. 0. 0. 0. 0. 0.]
5.3541436195373535,-0.006925992202013732,-0.009767497889697553,0.9989911913871766,0.04328656569123269,[0. 0. 0. 0. 0. 0. 0. 0. 0.],-0.00032335522701032465,-0.0486224889755249,0.16293601691722873,[0. 0. 0. 0. 0. 0. 0. 0. 0.],0.032219763845205314,-0.3883570432662964,9.812756538391115,[0. 0. 0. 0. 0. 0. 0. 0. 0.]
5.374143600463867,-0.0065277968533337125,-0.009733837097883224,0.9990618824958802,0.04169416800141335,[0. 0. 0. 0. 0. 0. 0. 0. 0.],-0.0070914626121521,-0.05242675542831421,0.1633800715208054,[0. 0. 0. 0. 0. 0. 0. 0. 0.],-0.32610163092613226,-0.06305597722530365,9.893460273742678,[0. 0. 0. 0. 0. 0. 0. 0. 0.]
5.394143581390381,-0.006086916662752628,-0.009607143700122833,0.999130368232727,0.040121570229530334,[0. 0. 0. 0. 0. 0. 0. 0. 0.],0.01174435019493103,-0.04477799311280251,0.16124024987220764,[0. 0. 0. 0. 0. 0. 0. 0. 0.],-0.5705726146697998,-0.16556294262409213,9.85145378112793,[0. 0. 0. 0. 0. 0. 0. 0. 0.]
5.4141435623168945,-0.005638708360493183,-0.009445436298847198,0.9991954565048218,0.0385718084871769,[0. 0. 0. 0. 0. 0. 0. 0. 0.],0.01656264066696167,-0.03722608461976052,0.16168211400508883,[0. 0. 0. 0. 0. 0. 0. 0. 0.],-0.2586993873119355,0.022715030238032344,9.986351966857912,[0. 0. 0. 0. 0. 0. 0. 0. 0.]
5.434144496917725,-0.005187483504414558,-0.009255319833755493,0.9992575645446777,0.03704697266221047,[0. 0. 0. 0. 0. 0. 0. 0. 0.],0.02392903156578541,-0.04112422466278076,0.15478657186031344,[0. 0. 0. 0. 0. 0. 0. 0. 0.],-0.3273300528526306,-0.2509670853614807,9.707715034484865,[0. 0. 0. 0. 0. 0. 0. 0. 0.]
5.454144477844238,-0.00471920007839799,-0.008995354175567627,0.9993171095848085,0.03552965447306634,[0. 0. 0. 0. 0. 0. 0. 0. 0.],0.029671197757124904,-0.04039407148957253,0.15192478895187378,[0. 0. 0. 0. 0. 0. 0. 0. 0.],-0.024550424888730053,-0.25325420498847967,9.755561828613281,[0. 0. 0. 0. 0. 0. 0. 0. 0.]
5.474144697189331,-0.004284118302166462,-0.008716824464499952,0.9993739724159242,0.034023068845272064,[0. 0. 0. 0. 0. 0. 0. 0. 0.],0.02234503999352455,-0.04869700595736504,0.15264973044395447,[0. 0. 0. 0. 0. 0. 0. 0. 0.],-0.15821689367294312,-0.20313225686550143,10.018880844116211,[0. 0. 0. 0. 0. 0. 0. 0. 0.]
5.494144678115845,-0.0038496700581163172,-0.008395054377615454,0.9994283318519593,0.032523468136787415,[0. 0. 0. 0. 0. 0. 0. 0. 0.],0.03438442945480347,-0.05205274000763894,0.15455187857151034,[0. 0. 0. 0. 0. 0. 0. 0. 0.],-0.40378990769386297,-0.2285500466823578,9.808398246765138,[0. 0. 0. 0. 0. 0. 0. 0. 0.]
5.514144659042358,-0.003464074805378914,-0.008042794652283193,0.9994801878929139,0.03102428838610649,[0. 0. 0. 0. 0. 0. 0. 0. 0.],0.030005728825926784,-0.030951205641031265,0.15580134093761447,[0. 0. 0. 0. 0. 0. 0. 0. 0.],-0.3057525157928467,0.07804752886295319,10.027283668518068,[0. 0. 0. 0. 0. 0. 0. 0. 0.]
5.5341455936431885,-0.0030732534360140566,-0.007679725997149944,0.9995300769805908,0.029524073004722595,[0. 0. 0. 0. 0. 0. 0. 0. 0.],0.040196627378463745,-0.03546029329299927,0.15546159446239474,[0. 0. 0. 0. 0. 0. 0. 0. 0.],-0.29859405755996704,-0.19905476272106173,9.766148567199709,[0. 0. 0. 0. 0. 0. 0. 0. 0.]
5.554145574569702,-0.0027286552358418707,-0.007312494330108166,0.9995769262313843,0.028027268126606945,[0. 0. 0. 0. 0. 0. 0. 0. 0.],0.0347726047039032,-0.025023521855473522,0.15405341982841492,[0. 0. 0. 0. 0. 0. 0. 0. 0.],-0.046051632612943656,-0.131790429353714,9.75283718109131,[0. 0. 0. 0. 0. 0. 0. 0. 0.]
5.574145555496216,-0.002454879693686962,-0.006972360424697399,0.999621331691742,0.026512788608670238,[0. 0. 0. 0. 0. 0. 0. 0. 0.],0.02868846617639065,-0.028362873941659927,0.15385225415229797,[0. 0. 0. 0. 0. 0. 0. 0. 0.],-0.06504188477993011,-0.22768929600715637,9.96105480194092,[0. 0. 0. 0. 0. 0. 0. 0. 0.]
5.5941455364227295,-0.002240988425910473,-0.006609031930565834,0.9996629953384399,0.02501175366342068,[0. 0. 0. 0. 0. 0. 0. 0. 0.],0.027155134826898575,-0.028702618554234508,0.1510314643383026,[0. 0. 0. 0. 0. 0. 0. 0. 0.],-0.1591218113899231,-0.10122089833021165,9.820408821105959,[0. 0. 0. 0. 0. 0. 0. 0. 0.]
5.614145517349243,-0.0021229668054729704,-0.006274712271988392,0.999702274799347,0.023496599867939953,[0. 0. 0. 0. 0. 0. 0. 0. 0.],0.025523453950881958,-0.011758506298065186,0.15633033215999606,[0. 0. 0. 0. 0. 0. 0. 0. 0.],-0.1897413432598114,0.09413844347000122,9.841537475585938,[0. 0. 0. 0. 0. 0. 0. 0. 0.]
5.634145498275757,-0.002028187504038215,-0.0059844693168997765,0.9997382164001465,0.021992953494191173,[0. 0. 0. 0. 0. 0. 0. 0. 0.],0.03470257297158242,-0.004190206527709961,0.1525007337331772,[0. 0. 0. 0. 0. 0. 0. 0. 0.],-0.17351366579532626,-0.06100365892052651,9.768565177917482,[0. 0. 0. 0. 0. 0. 0. 0. 0.]
5.654146432876587,-0.0020102928392589092,-0.005740761756896973,0.9997716546058656,0.020493976771831512,[0. 0. 0. 0. 0. 0. 0. 0. 0.],0.0223554689437151,0.007862597703933716,0.15236511826515198,[0. 0. 0. 0. 0. 0. 0. 0. 0.],-0.1723213493824005,0.024406528100371364,9.782786369323732,[0. 0. 0. 0. 0. 0. 0. 0. 0.]
5.674146413803101,-0.0020698986481875186,-0.005544860381633044,0.9998023509979248,0.018989769741892818,[0. 0. 0. 0. 0. 0. 0. 0. 0.],0.008849055506289007,0.0036232173442840576,0.1523547023534775,[0. 0. 0. 0. 0. 0. 0. 0. 0.],-0.10569439828395844,-0.27623662352561956,9.817748069763185,[0. 0. 0. 0. 0. 0. 0. 0. 0.]
5.694146394729614,-0.0021777083165943623,-0.005384613759815693,0.9998304247856141,0.017475154250860214,[0. 0. 0. 0. 0. 0. 0. 0. 0.],0.0120602548122406,0.003450364340096712,0.15517698228359225,[0. 0. 0. 0. 0. 0. 0. 0. 0.],0.03415819630026818,-0.10929703712463379,9.731320381164553,[0. 0. 0. 0. 0. 0. 0. 0. 0.]
5.714146614074707,-0.0023407407570630316,-0.0052827633917331696,0.9998556971549989,0.01597639732062817,[0. 0. 0. 0. 0. 0. 0. 0. 0.],-0.0002861023822333664,0.01766607165336609,0.1529134958982468,[0. 0. 0. 0. 0. 0. 0. 0. 0.],-0.22616708278656006,0.06607362627983093,9.820928573608398,[0. 0. 0. 0. 0. 0. 0. 0. 0.]
5.734146595001221,-0.002547570271417499,-0.005213257856667042,0.9998782873153687,0.014487320557236671,[0. 0. 0. 0. 0. 0. 0. 0. 0.],0.005916506052017212,0.024770947173237804,0.14905558526515963,[0. 0. 0. 0. 0. 0. 0. 0. 0.],-0.28415918350219727,-0.06724561750888824,9.797413825988771,[0. 0. 0. 0. 0. 0. 0. 0. 0.]
5.754146575927734,-0.002797115594148636,-0.005209312774240971,0.9998979568481445,0.012998811900615692,[0. 0. 0. 0. 0. 0. 0. 0. 0.],-0.006759166717529297,0.03468171134591103,0.15028491616249084,[0. 0. 0. 0. 0. 0. 0. 0. 0.],-0.2449142038822174,0.007627518847584724,9.779909133911133,[0. 0. 0. 0. 0. 0. 0. 0. 0.]
5.7741475105285645,-0.003076303051784635,-0.005267190746963024,0.9999151229858398,0.011519429273903372,[0. 0. 0. 0. 0. 0. 0. 0. 0.],-0.008630753494799139,0.02445057220757008,0.14945194125175476,[0. 0. 0. 0. 0. 0. 0. 0. 0.],-0.12453760951757432,-0.14192990958690646,9.853567123413086,[0. 0. 0. 0. 0. 0. 0. 0. 0.]
5.794147491455078,-0.0033938211854547267,-0.005368919111788273,0.9999294281005859,0.010050822049379349,[0. 0. 0. 0. 0. 0. 0. 0. 0.],-0.01239478774368763,0.020232053473591808,0.15049651265144348,[0. 0. 0. 0. 0. 0. 0. 0. 0.],-0.16469000279903415,-0.1828693598508835,9.76496696472168,[0. 0. 0. 0. 0. 0. 0. 0. 0.]
5.814147472381592,-0.0037296428345143795,-0.0054958295077085495,0.999941349029541,0.008579665794968605,[0. 0. 0. 0. 0. 0. 0. 0. 0.],-0.014691054821014404,0.03441200032830239,0.1493223160505295,[0. 0. 0. 0. 0. 0. 0. 0. 0.],-0.24110753834247592,0.1132151708006859,9.854467391967773,[0. 0. 0. 0. 0. 0. 0. 0. 0.]
5.8341474533081055,-0.004060129635035992,-0.00567114306613803,0.999950647354126,0.007126222364604473,[0. 0. 0. 0. 0. 0. 0. 0. 0.],-0.01960396580398083,0.03656074404716492,0.14790074527263644,[0. 0. 0. 0. 0. 0. 0. 0. 0.],-0.35305267572402954,-0.12699232995510104,9.686551094055178,[0. 0. 0. 0. 0. 0. 0. 0. 0.]
5.854147434234619,-0.004372484516352416,-0.005872000474482776,0.9999573230743408,0.005677605979144573,[0. 0. 0. 0. 0. 0. 0. 0. 0.],-0.02107173576951027,0.03272518515586853,0.14565815031528476,[0. 0. 0. 0. 0. 0. 0. 0. 0.],0.3574230372905732,-0.22120128571987155,9.680623054504396,[0. 0. 0. 0. 0. 0. 0. 0. 0.]
5.874147415161133,-0.004697715863585472,-0.006091856863349677,0.9999614357948304,0.004257130436599255,[0. 0. 0. 0. 0. 0. 0. 0. 0.],-0.030803686007857326,0.027234110981225967,0.14406369626522067,[0. 0. 0. 0. 0. 0. 0. 0. 0.],-0.22723430395126343,-0.06258949637413025,9.78982925415039,[0. 0. 0. 0. 0. 0. 0. 0. 0.]
5.894148349761963,-0.0050196689553558835,-0.0063225054182112226,0.9999635219573975,0.0028605272527784113,[0. 0. 0. 0. 0. 0. 0. 0. 0.],-0.02559870667755604,0.035881251096725464,0.1451350748538971,[0. 0. 0. 0. 0. 0. 0. 0. 0.],-0.48545199632644653,-0.24508799612522128,9.728849411010742,[0. 0. 0. 0. 0. 0. 0. 0. 0.]
5.914148330688477,-0.005311612971127033,-0.006518153939396144,0.9999637007713319,0.0014807083643972874,[0. 0. 0. 0. 0. 0. 0. 0. 0.],-0.01271963119506836,0.03060475178062916,0.1377485692501068,[0. 0. 0. 0. 0. 0. 0. 0. 0.],-0.15074689686298373,-0.0472487136721611,9.691941261291506,[0. 0. 0. 0. 0. 0. 0. 0. 0.]
5.934148550033569,-0.005566289648413658,-0.006739090196788311,0.9999619722366333,0.00010483649384696037,[0. 0. 0. 0. 0. 0. 0. 0. 0.],-0.0303074773401022,0.03024563752114773,0.13701394200325012,[0. 0. 0. 0. 0. 0. 0. 0. 0.],-0.19600366055965426,-0.19923168420791626,9.81573486328125,[0. 0. 0. 0. 0. 0. 0. 0. 0.]
5.954149484634399,-0.005790808238089085,-0.00692546321079135,0.9999585151672363,-0.0012517855502665043,[0. 0. 0. 0. 0. 0. 0. 0. 0.],-0.020750507712364197,0.008196086622774603,0.13863635063171387,[0. 0. 0. 0. 0. 0. 0. 0. 0.],-0.25813543796539307,-0.2665554881095886,9.815062522888185,[0. 0. 0. 0. 0. 0. 0. 0. 0.]
5.974149465560913,-0.005996975582093001,-0.007095167879015208,0.9999536871910096,-0.0025860187597572803,[0. 0. 0. 0. 0. 0. 0. 0. 0.],-0.011524559929966927,0.021346660330891613,0.13915376365184787,[0. 0. 0. 0. 0. 0. 0. 0. 0.],-0.28226169943809515,-0.06741824001073839,9.797890663146974,[0. 0. 0. 0. 0. 0. 0. 0. 0.]
5.994149446487427,-0.006168100982904434,-0.007253844290971756,0.9999471306800843,-0.003913142252713443,[0. 0. 0. 0. 0. 0. 0. 0. 0.],-0.019365549087524414,0.018412625417113308,0.1335732638835907,[0. 0. 0. 0. 0. 0. 0. 0. 0.],-0.24005097150802612,-0.1773502975702286,9.833698272705078,[0. 0. 0. 0. 0. 0. 0. 0. 0.]
6.01414942741394,-0.006281612906605006,-0.007384687662124634,0.9999395012855531,-0.005232104565948249,[0. 0. 0. 0. 0. 0. 0. 0. 0.],-0.0076144938357174405,0.011358411051332952,0.1322142779827118,[0. 0. 0. 0. 0. 0. 0. 0. 0.],-0.09272156655788422,-0.31901586055755615,9.741798400878906,[0. 0. 0. 0. 0. 0. 0. 0. 0.]
6.034149408340454,-0.006365005392581225,-0.007503905799239875,0.9999302029609681,-0.006541533395648003,[0. 0. 0. 0. 0. 0. 0. 0. 0.],-0.015754997730255127,0.0047691171057522306,0.13285651803016663,[0. 0. 0. 0. 0. 0. 0. 0. 0.],-0.012220504693686964,-0.11675728112459184,9.881038665771484,[0. 0. 0. 0. 0. 0. 0. 0. 0.]
6.054140329360962,-0.006425167899578811,-0.007572751957923175,0.9999200105667114,-0.007840035483241081,[0. 0. 0. 0. 0. 0. 0. 0. 0.],-0.013287366367876531,0.0046797096729278564,0.13343170285224915,[0. 0. 0. 0. 0. 0. 0. 0. 0.],-0.4741244018077851,-0.16777999699115756,9.92966938018799,[0. 0. 0. 0. 0. 0. 0. 0. 0.]
6.074141263961792,-0.006437313277274371,-0.00761701399460435,0.9999088048934937,-0.009126470424234869,[0. 0. 0. 0. 0. 0. 0. 0. 0.],0.004179030656814575,-0.0033617021981626753,0.12989115715026855,[0. 0. 0. 0. 0. 0. 0. 0. 0.],-0.40143918991088867,-0.2247619926929474,9.885078430175781,[0. 0. 0. 0. 0. 0. 0. 0. 0.]
6.094141244888306,-0.006428494583815337,-0.007621541619300842,0.9998967051506044,-0.010390978306531906,[0. 0. 0. 0. 0. 0. 0. 0. 0.],0.00044032934238202875,0.002280622953549028,0.12893006205558777,[0. 0. 0. 0. 0. 0. 0. 0. 0.],-0.43679267168045044,-0.07721516489982605,9.896324157714844,[0. 0. 0. 0. 0. 0. 0. 0. 0.]
6.114141464233398,-0.006368608679622413,-0.007630735635757446,0.999882996082306,-0.011645009741187096,[0. 0. 0. 0. 0. 0. 0. 0. 0.],-0.0006645919638685883,-0.008989870548248291,0.12730883061885837,[0. 0. 0. 0. 0. 0. 0. 0. 0.],-0.3063266575336457,-0.3466988205909729,9.927042007446289,[0. 0. 0. 0. 0. 0. 0. 0. 0.]
6.134141445159912,-0.0062849228270351895,-0.007599546108394862,0.9998685717582704,-0.01289735920727253,[0. 0. 0. 0. 0. 0. 0. 0. 0.],0.008795411325991155,-0.019209086894989014,0.12945011258125305,[0. 0. 0. 0. 0. 0. 0. 0. 0.],-0.15650036931037903,-0.14481011033058167,9.863125801086428,[0. 0. 0. 0. 0. 0. 0. 0. 0.]
6.154141426086426,-0.006211542058736087,-0.007572966627776623,0.9998522996902466,-0.014142547734081747,[0. 0. 0. 0. 0. 0. 0. 0. 0.],-0.0025868420489132404,-0.005333126056939364,0.12883469462394714,[0. 0. 0. 0. 0. 0. 0. 0. 0.],-0.41078868508338934,-0.02391731180250645,10.009675979614258,[0. 0. 0. 0. 0. 0. 0. 0. 0.]
6.1741414070129395,-0.0060979751870036125,-0.007522332947701217,0.9998348355293275,-0.015392561443150045,[0. 0. 0. 0. 0. 0. 0. 0. 0.],0.008211285807192327,-0.012286008335649969,0.12727901339530945,[0. 0. 0. 0. 0. 0. 0. 0. 0.],-0.4514704048633576,-0.13371594250202182,9.894530296325685,[0. 0. 0. 0. 0. 0. 0. 0. 0.]
6.1941423416137695,-0.005967959761619568,-0.007465710397809745,0.9998159408569336,-0.016649778932332993,[0. 0. 0. 0. 0. 0. 0. 0. 0.],0.009446591138839722,-0.0058785085566341886,0.13004913926124573,[0. 0. 0. 0. 0. 0. 0. 0. 0.],-0.0206026416271925,-0.1612895578145981,9.83713150024414,[0. 0. 0. 0. 0. 0. 0. 0. 0.]
6.214142322540283,-0.005826290231198073,-0.007424117065966129,0.9997953772544862,-0.017897091805934906,[0. 0. 0. 0. 0. 0. 0. 0. 0.],-0.003771484596654773,-0.01926124095916748,0.12842342257499695,[0. 0. 0. 0. 0. 0. 0. 0. 0.],-0.15449957549571994,-0.25217238068580633,10.008435249328615,[0. 0. 0. 0. 0. 0. 0. 0. 0.]
6.234142303466797,-0.005678875371813774,-0.007369309663772583,0.9997732043266297,-0.019163625314831737,[0. 0. 0. 0. 0. 0. 0. 0. 0.],0.00355467270128429,-0.02288818359375,0.12909995019435885,[0. 0. 0. 0. 0. 0. 0. 0. 0.],-0.3786786496639252,-0.18957138061523438,9.84785556793213,[0. 0. 0. 0. 0. 0. 0. 0. 0.]
6.2541422843933105,-0.005542175378650428,-0.0073097823187708855,0.9997497200965882,-0.020410843193531036,[0. 0. 0. 0. 0. 0. 0. 0. 0.],0.003302842378616333,-0.011426208540797234,0.13054983317852023,[0. 0. 0. 0. 0. 0. 0. 0. 0.],-0.28215566277503973,0.11287523806095123,10.008103370666506,[0. 0. 0. 0. 0. 0. 0. 0. 0.]
6.274142265319824,-0.005397245753556491,-0.007293426897376777,0.9997239708900453,-0.02167746610939503,[0. 0. 0. 0. 0. 0. 0. 0. 0.],0.0023819501511752605,-0.011239946819841863,0.12745782732963562,[0. 0. 0. 0. 0. 0. 0. 0. 0.],-0.336178332567215,-0.21178889274597168,9.748398780822756,[0. 0. 0. 0. 0. 0. 0. 0. 0.]
6.294142246246338,-0.005255523137748241,-0.007255873177200557,0.9996962547302246,-0.022962622344493866,[0. 0. 0. 0. 0. 0. 0. 0. 0.],0.005065650213509799,-0.01128464937210083,0.13405010104179382,[0. 0. 0. 0. 0. 0. 0. 0. 0.],0.2918287515640259,-0.24003772437572482,9.769554138183594,[0. 0. 0. 0. 0. 0. 0. 0. 0.]
6.314143180847168,-0.005130685400217772,-0.007235071621835232,0.9996665120124818,-0.024257399141788483,[0. 0. 0. 0. 0. 0. 0. 0. 0.],-0.009188056923449041,-0.015306472778320312,0.13500677049160006,[0. 0. 0. 0. 0. 0. 0. 0. 0.],-0.22867777943611145,-0.09444479644298553,9.903462409973146,[0. 0. 0. 0. 0. 0. 0. 0. 0.]
6.334143161773682,-0.0050238589756190785,-0.007235185708850623,0.9996343851089478,-0.025571614503860474,[0. 0. 0. 0. 0. 0. 0. 0. 0.],0.0047691171057522306,-0.013051928021013738,0.1354418694972992,[0. 0. 0. 0. 0. 0. 0. 0. 0.],-0.4354909658432007,-0.22659102082252502,9.796995162963867,[0. 0. 0. 0. 0. 0. 0. 0. 0.]
6.354143381118774,-0.004913708195090294,-0.007222269196063281,0.999600112438202,-0.026901371777057648,[0. 0. 0. 0. 0. 0. 0. 0. 0.],0.004686415195465088,-0.004653633106499911,0.1332506537437439,[0. 0. 0. 0. 0. 0. 0. 0. 0.],-0.23437879979610446,-0.025412885472178463,9.830644607543945,[0. 0. 0. 0. 0. 0. 0. 0. 0.]
6.374143362045288,-0.004831451922655106,-0.007233380805701018,0.9995635151863099,-0.028242770582437515,[0. 0. 0. 0. 0. 0. 0. 0. 0.],-0.005879998207092285,-0.00019967557454947385,0.13503955304622653,[0. 0. 0. 0. 0. 0. 0. 0. 0.],-0.12690337002277377,-0.2060946971178055,9.787961959838867,[0. 0. 0. 0. 0. 0. 0. 0. 0.]
6.394143342971802,-0.004764217883348465,-0.007252135779708625,0.9995245337486268,-0.029595406726002697,[0. 0. 0. 0. 0. 0. 0. 0. 0.],-0.001430511474609375,-0.015273691155016424,0.13786330819129944,[0. 0. 0. 0. 0. 0. 0. 0. 0.],0.26870396733284,-0.29850819706916815,9.72389030456543,[0. 0. 0. 0. 0. 0. 0. 0. 0.]
6.414143323898315,-0.004735887050628662,-0.0072528193704783925,0.9994834065437318,-0.03095317631959915,[0. 0. 0. 0. 0. 0. 0. 0. 0.],-0.000998377916403115,-0.007067622151225806,0.13827010989189148,[0. 0. 0. 0. 0. 0. 0. 0. 0.],-0.21718950569629672,0.08130379766225816,9.761695861816406,[0. 0. 0. 0. 0. 0. 0. 0. 0.]
6.4341442584991455,-0.004740398842841388,-0.007273333612829448,0.9994402527809144,-0.03231056034564972,[0. 0. 0. 0. 0. 0. 0. 0. 0.],-0.009655955247581007,0.008811801671981812,0.1381613463163376,[0. 0. 0. 0. 0. 0. 0. 0. 0.],-0.4449688792228699,-0.16237287223339084,9.734759330749513,[0. 0. 0. 0. 0. 0. 0. 0. 0.]
6.454144239425659,-0.0047622169367969045,-0.0072924657724797734,0.9993945360183716,-0.033684317022562034,[0. 0. 0. 0. 0. 0. 0. 0. 0.],0.004228204954415561,0.005636364221572876,0.13867244124412537,[0. 0. 0. 0. 0. 0. 0. 0. 0.],-0.017848005518317226,-0.13159459829330444,9.619643211364748,[0. 0. 0. 0. 0. 0. 0. 0. 0.]
6.474144220352173,-0.00479935808107257,-0.007329351734369994,0.9993470907211304,-0.03505378216505051,[0. 0. 0. 0. 0. 0. 0. 0. 0.],-0.005684794392436744,0.006047637201845646,0.13918505609035495,[0. 0. 0. 0. 0. 0. 0. 0. 0.],-0.05118774622678757,-0.19076037406921387,9.755965232849123,[0. 0. 0. 0. 0. 0. 0. 0. 0.]
6.4941442012786865,-0.004866688512265682,-0.007365544326603413,0.9992971420288086,-0.03643308207392693,[0. 0. 0. 0. 0. 0. 0. 0. 0.],-0.004230440128594638,-0.006605685222893954,0.1392953097820282,[0. 0. 0. 0. 0. 0. 0. 0. 0.],-0.12405336648225786,-0.269306093454361,9.756897926330568,[0. 0. 0. 0. 0. 0. 0. 0. 0.]
6.5141441822052,-0.0049530486576259145,-0.007388098631054164,0.9992453455924989,-0.0378122590482235,[0. 0. 0. 0. 0. 0. 0. 0. 0.],-0.0049129133112728604,0.00926479697227478,0.1431606858968735,[0. 0. 0. 0. 0. 0. 0. 0. 0.],-0.18148364126682284,0.028103336691856384,9.673734664916992,[0. 0. 0. 0. 0. 0. 0. 0. 0.]
6.534145355224609,-0.0050723678432405,-0.007429512683302165,0.9991918802261353,-0.03917790204286575,[0. 0. 0. 0. 0. 0. 0. 0. 0.],-0.009742380119860174,0.020787864923477173,0.1390613615512848,[0. 0. 0. 0. 0. 0. 0. 0. 0.],-0.2827682197093964,-0.13675214350223544,9.710317611694336,[0. 0. 0. 0. 0. 0. 0. 0. 0.]
6.554145097732544,-0.005182337947189808,-0.0074530267156660565,0.9991362690925599,-0.04054979979991913,[0. 0. 0. 0. 0. 0. 0. 0. 0.],0.002018362516537309,0.008430331945419312,0.1384370177984238,[0. 0. 0. 0. 0. 0. 0. 0. 0.],-0.05236376449465752,-0.2628138363361359,9.593058586120607,[0. 0. 0. 0. 0. 0. 0. 0. 0.]
6.574145078659058,-0.005288045387715102,-0.007517481222748756,0.9990798830986024,-0.04189541935920715,[0. 0. 0. 0. 0. 0. 0. 0. 0.],-0.008015334606170654,0.009606033563613892,0.1354910582304001,[0. 0. 0. 0. 0. 0. 0. 0. 0.],-0.01063525304198265,-0.08526044338941575,9.793708801269531,[0. 0. 0. 0. 0. 0. 0. 0. 0.]
6.59414529800415,-0.00543492566794157,-0.007591031491756439,0.9990217685699463,-0.043229490518569946,[0. 0. 0. 0. 0. 0. 0. 0. 0.],-0.011382998898625374,0.011611732654273512,0.13802725076675415,[0. 0. 0. 0. 0. 0. 0. 0. 0.],-0.44429334998130804,-0.21570274233818054,9.765462875366211,[0. 0. 0. 0. 0. 0. 0. 0. 0.]
6.614145278930664,-0.005570013541728259,-0.0076599675230681905,0.9989619255065918,-0.04456176236271859,[0. 0. 0. 0. 0. 0. 0. 0. 0.],-0.003638864262029529,0.012386590242385864,0.13475492596626282,[0. 0. 0. 0. 0. 0. 0. 0. 0.],-0.0850432962179184,-0.09490280598402025,9.727188110351562,[0. 0. 0. 0. 0. 0. 0. 0. 0.]
6.634145259857178,-0.005707659758627415,-0.007760405074805022,0.9989011883735658,-0.045867063105106354,[0. 0. 0. 0. 0. 0. 0. 0. 0.],-0.01186430547386408,0.018133964389562607,0.1306913644075394,[0. 0. 0. 0. 0. 0. 0. 0. 0.],-0.3693054020404816,-0.08058951050043107,9.82797622680664,[0. 0. 0. 0. 0. 0. 0. 0. 0.]
6.654146194458008,-0.005819322541356087,-0.00785842351615429,0.998839557170868,-0.047162208706140525,[0. 0. 0. 0. 0. 0. 0. 0. 0.],-0.013433398678898811,0.010702759027481079,0.13071076571941379,[0. 0. 0. 0. 0. 0. 0. 0. 0.],-0.20257341861724854,-0.3325943350791931,9.790595054626467,[0. 0. 0. 0. 0. 0. 0. 0. 0.]
6.6741461753845215,-0.005903927609324455,-0.007966180332005026,0.9987762570381166,-0.048455644398927696,[0. 0. 0. 0. 0. 0. 0. 0. 0.],-0.006280839443206787,0.00023916365171317014,0.13078376650810242,[0. 0. 0. 0. 0. 0. 0. 0. 0.],-0.05812934413552285,-0.0639590322971344,9.76772212982178,[0. 0. 0. 0. 0. 0. 0. 0. 0.]
6.694146156311035,-0.005978520028293133,-0.008070505224168302,0.9987125396728516,-0.049725029617547996,[0. 0. 0. 0. 0. 0. 0. 0. 0.],-0.015285611152648926,0.007308274973183871,0.1307003349065781,[0. 0. 0. 0. 0. 0. 0. 0. 0.],-0.39867487549781805,-0.08102136105298997,9.823073387145998,[0. 0. 0. 0. 0. 0. 0. 0. 0.]
6.714146137237549,-0.006002168636769057,-0.008159539662301542,0.9986481070518495,-0.050985343754291534,[0. 0. 0. 0. 0. 0. 0. 0. 0.],-0.007878244854509832,0.0010989606380462646,0.12936668097972873,[0. 0. 0. 0. 0. 0. 0. 0. 0.],-0.42272770404815674,-0.24867674708366394,9.675735473632812,[0. 0. 0. 0. 0. 0. 0. 0. 0.]
6.7341461181640625,-0.005984940566122532,-0.008239196613430977,0.9985836744308472,-0.05222395434975625,[0. 0. 0. 0. 0. 0. 0. 0. 0.],-0.007544457912445068,0.006232409738004208,0.12552367150783542,[0. 0. 0. 0. 0. 0. 0. 0. 0.],-0.19702556729316711,-0.10846101492643358,9.829993247985842,[0. 0. 0. 0. 0. 0. 0. 0. 0.]
6.754146099090576,-0.005932738538831473,-0.00831889733672142,0.9985174536705018,-0.05346684902906418,[0. 0. 0. 0. 0. 0. 0. 0. 0.],-0.008949637413024902,-0.011925400234758856,0.12719258666038513,[0. 0. 0. 0. 0. 0. 0. 0. 0.],-0.29736649990081787,-0.2907360792160034,9.934475898742678,[0. 0. 0. 0. 0. 0. 0. 0. 0.]
6.774147272109985,-0.00581769086420536,-0.00836529675871134,0.9984511137008667,-0.05469636619091034,[0. 0. 0. 0. 0. 0. 0. 0. 0.],-0.005163252819329501,-0.026172403246164322,0.12822076678276062,[0. 0. 0. 0. 0. 0. 0. 0. 0.],-0.3654658794403076,-0.21148747205734253,9.872720718383789,[0. 0. 0. 0. 0. 0. 0. 0. 0.]
6.794147253036499,-0.005667340941727161,-0.008366567082703115,0.9983838200569154,-0.05592618137598038,[0. 0. 0. 0. 0. 0. 0. 0. 0.],-0.004005432594567538,-0.012636186555027962,0.12713448703289035,[0. 0. 0. 0. 0. 0. 0. 0. 0.],-0.4087614715099335,0.004130654036998749,9.997953414916992,[0. 0. 0. 0. 0. 0. 0. 0. 0.]
6.814146995544434,-0.005444446112960578,-0.008353055454790594,0.9983162879943848,-0.057144511491060264,[0. 0. 0. 0. 0. 0. 0. 0. 0.],0.0038243834860622883,-0.019754469394683838,0.1279615014791489,[0. 0. 0. 0. 0. 0. 0. 0. 0.],-0.34882149100303655,-0.21649341285228732,9.787673950195312,[0. 0. 0. 0. 0. 0. 0. 0. 0.]
6.834147214889526,-0.00518791237846017,-0.008304736576974394,0.998247802257538,-0.05835904553532601,[0. 0. 0. 0. 0. 0. 0. 0. 0.],0.009315462782979012,-0.024262076243758205,0.1244850605726242,[0. 0. 0. 0. 0. 0. 0. 0. 0.],0.16319559514522555,-0.22891908884048462,9.790701866149904,[0. 0. 0. 0. 0. 0. 0. 0. 0.]
6.85414719581604,-0.004903014749288559,-0.008228054270148277,0.998178780078888,-0.059558834880590446,[0. 0. 0. 0. 0. 0. 0. 0. 0.],0.0056616957299411306,-0.03628730773925781,0.1213274896144867,[0. 0. 0. 0. 0. 0. 0. 0. 0.],-0.1947718858718872,-0.17422688007354736,9.958669662475586,[0. 0. 0. 0. 0. 0. 0. 0. 0.]
6.874147176742554,-0.004593760706484318,-0.008106491528451444,0.9981095790863037,-0.060749340802431114,[0. 0. 0. 0. 0. 0. 0. 0. 0.],0.011818856000900269,-0.03339648619294167,0.12514665722846985,[0. 0. 0. 0. 0. 0. 0. 0. 0.],-0.5583172440528871,-0.22736720740795138,9.8421630859375,[0. 0. 0. 0. 0. 0. 0. 0. 0.]
6.894148111343384,-0.004249885678291321,-0.007951796986162664,0.998037874698639,-0.061960060149431236,[0. 0. 0. 0. 0. 0. 0. 0. 0.],0.015827268362045288,-0.028710070997476578,0.12670235335826877,[0. 0. 0. 0. 0. 0. 0. 0. 0.],-0.36491936445236206,0.010976999066770078,9.975674629211428,[0. 0. 0. 0. 0. 0. 0. 0. 0.]
6.9141480922698975,-0.0038740944582968955,-0.007771525532007217,0.997965157032013,-0.06316822022199632,[0. 0. 0. 0. 0. 0. 0. 0. 0.],0.020682066679000854,-0.027835374698042873,0.12004749476909637,[0. 0. 0. 0. 0. 0. 0. 0. 0.],-0.2820357084274292,-0.2520344853401184,9.846481323242188,[0. 0. 0. 0. 0. 0. 0. 0. 0.]
6.934148073196411,-0.003482130356132984,-0.007553657982498408,0.9978904128074647,-0.06438933312892914,[0. 0. 0. 0. 0. 0. 0. 0. 0.],0.021392107009887695,-0.04410148039460183,0.12634994089603427,[0. 0. 0. 0. 0. 0. 0. 0. 0.],0.23810872435569763,-0.33045133948326116,9.814444541931154,[0. 0. 0. 0. 0. 0. 0. 0. 0.]
6.954148054122925,-0.0031232454348355536,-0.007308272179216147,0.9978128075599672,-0.06562647968530656,[0. 0. 0. 0. 0. 0. 0. 0. 0.],0.017648192122578624,-0.04388093948364258,0.1286350339651108,[0. 0. 0. 0. 0. 0. 0. 0. 0.],-0.2395114451646805,-0.021922074258327484,9.880166053771974,[0. 0. 0. 0. 0. 0. 0. 0. 0.]
6.9741480350494385,-0.0027817306108772755,-0.007073736749589443,0.9977325797080995,-0.06687608361244202,[0. 0. 0. 0. 0. 0. 0. 0. 0.],0.020644813776016235,-0.029057268053293228,0.1296423524618149,[0. 0. 0. 0. 0. 0. 0. 0. 0.],-0.507836401462555,-0.15968795120716098,9.836862564086914,[0. 0. 0. 0. 0. 0. 0. 0. 0.]
6.994148015975952,-0.00243882485665381,-0.006825809367001057,0.9976494312286377,-0.0681445300579071,[0. 0. 0. 0. 0. 0. 0. 0. 0.],0.027500839903950695,-0.030547380447387695,0.12833999097347262,[0. 0. 0. 0. 0. 0. 0. 0. 0.],-0.18029892444610596,-0.11826469749212266,9.775279045104982,[0. 0. 0. 0. 0. 0. 0. 0. 0.]
7.014147996902466,-0.0021462512668222193,-0.006606333889067173,0.9975636005401611,-0.06941942870616913,[0. 0. 0. 0. 0. 0. 0. 0. 0.],0.01896992325782776,-0.02531707473099232,0.12889580428600314,[0. 0. 0. 0. 0. 0. 0. 0. 0.],-0.004054236225783825,-0.16673332452774048,9.872993469238281,[0. 0. 0. 0. 0. 0. 0. 0. 0.]
7.034148216247559,-0.001867784536443651,-0.00638866052031517,0.9974756836891175,-0.0706976279616356,[0. 0. 0. 0. 0. 0. 0. 0. 0.],0.016549976542592052,-0.0392228364944458,0.12982265651226046,[0. 0. 0. 0. 0. 0. 0. 0. 0.],-0.09162913262844086,-0.26673528552055364,9.83016109466553,[0. 0. 0. 0. 0. 0. 0. 0. 0.]
7.054140090942383,-0.0016425444046035411,-0.0061824903823435315,0.9973847270011903,-0.07199297845363617,[0. 0. 0. 0. 0. 0. 0. 0. 0.],0.017059596255421642,-0.025424366816878322,0.13541653752326965,[0. 0. 0. 0. 0. 0. 0. 0. 0.],-0.2339928895235062,0.10976366698741913,9.779749870300295,[0. 0. 0. 0. 0. 0. 0. 0. 0.]
7.074141025543213,-0.0014530937187373638,-0.006051377393305302,0.9972906112670898,-0.0732998251914978,[0. 0. 0. 0. 0. 0. 0. 0. 0.],0.005132704973220825,-0.013510885648429396,0.13525709509849548,[0. 0. 0. 0. 0. 0. 0. 0. 0.],-0.16898430883884433,-0.11218380928039551,9.795125007629396,[0. 0. 0. 0. 0. 0. 0. 0. 0.]
7.094141006469727,-0.0013031205162405968,-0.005954255349934101,0.9971930980682373,-0.07462961971759796,[0. 0. 0. 0. 0. 0. 0. 0. 0.],0.01336708664894104,-0.012700260616838934,0.13492928445339206,[0. 0. 0. 0. 0. 0. 0. 0. 0.],0.04102903604507446,-0.20799820125103,9.632307052612305,[0. 0. 0. 0. 0. 0. 0. 0. 0.]
7.11414098739624,-0.001198688172735274,-0.0059112850576639175,0.9970923066139222,-0.07596679031848907,[0. 0. 0. 0. 0. 0. 0. 0. 0.],-0.003439188003540039,-0.005768239963799716,0.1373298466205597,[0. 0. 0. 0. 0. 0. 0. 0. 0.],0.04354375600814819,-0.039724376052618034,9.80219841003418,[0. 0. 0. 0. 0. 0. 0. 0. 0.]
7.134140968322754,-0.0011548558250069618,-0.005928150843828917,0.9969887137413026,-0.07731291651725769,[0. 0. 0. 0. 0. 0. 0. 0. 0.],-0.0047788028605282315,-0.009614231996238233,0.1380734145641327,[0. 0. 0. 0. 0. 0. 0. 0. 0.],-0.33347961306571966,-0.20964348316192627,9.806780815124513,[0. 0. 0. 0. 0. 0. 0. 0. 0.]
7.154140949249268,-0.0011406817939132452,-0.005991320125758648,0.9968823194503784,-0.07866837829351427,[0. 0. 0. 0. 0. 0. 0. 0. 0.],-0.006112457718700171,0.0008873642655089498,0.1402668803930283,[0. 0. 0. 0. 0. 0. 0. 0. 0.],-0.15271259844303134,-0.08995551615953447,9.756658554077148,[0. 0. 0. 0. 0. 0. 0. 0. 0.]
7.174140930175781,-0.0011311834678053856,-0.006115139927715064,0.9967725276947021,-0.08004055172204973,[0. 0. 0. 0. 0. 0. 0. 0. 0.],-0.014241040684282781,0.004897266626358032,0.138980895280838,[0. 0. 0. 0. 0. 0. 0. 0. 0.],-0.1009538322687149,-0.08712279051542283,9.820837974548342,[0. 0. 0. 0. 0. 0. 0. 0. 0.]
7.19414210319519,-0.0011433693580329418,-0.006274723447859287,0.9966593980789185,-0.08142373710870744,[0. 0. 0. 0. 0. 0. 0. 0. 0.],-0.014869869686663153,0.0033937389962375164,0.1393265873193741,[0. 0. 0. 0. 0. 0. 0. 0. 0.],-0.0027023693546652794,-0.33774188160896307,9.593545913696289,[0. 0. 0. 0. 0. 0. 0. 0. 0.]
7.214142084121704,-0.0012169727124273777,-0.006472761742770672,0.9965450763702393,-0.08279512077569963,[0. 0. 0. 0. 0. 0. 0. 0. 0.],-0.02690553851425648,0.006016344297677279,0.14067664742469788,[0. 0. 0. 0. 0. 0. 0. 0. 0.],0.1782420724630356,-0.05308130756020547,9.839868545532227,[0. 0. 0. 0. 0. 0. 0. 0. 0.]
7.234142065048218,-0.0013008402893319728,-0.006693592295050621,0.9964277148246766,-0.08417659252882005,[0. 0. 0. 0. 0. 0. 0. 0. 0.],-0.03207922354340554,0.008568912744522095,0.14147387444972995,[0. 0. 0. 0. 0. 0. 0. 0. 0.],-0.4346357583999634,-0.21141888201236728,9.809158325195312,[0. 0. 0. 0. 0. 0. 0. 0. 0.]
7.2541420459747314,-0.0014135577948763969,-0.006944058462977409,0.9963074922561646,-0.08556531369686127,[0. 0. 0. 0. 0. 0. 0. 0. 0.],-0.023809075355529785,0.010821969248354437,0.1408435553312302,[0. 0. 0. 0. 0. 0. 0. 0. 0.],-0.02673382125794888,-0.15113264322280884,9.755054473876953,[0. 0. 0. 0. 0. 0. 0. 0. 0.]
7.274142026901245,-0.0015327105065807702,-0.007228198926895858,0.996186375617981,-0.08693857491016388,[0. 0. 0. 0. 0. 0. 0. 0. 0.],-0.026069583371281627,0.02068355679512024,0.1356087774038315,[0. 0. 0. 0. 0. 0. 0. 0. 0.],-0.3277131021022797,0.0011397980852052572,9.822137832641602,[0. 0. 0. 0. 0. 0. 0. 0. 0.]
7.294142007827759,-0.0016742619918659332,-0.007513600867241622,0.9960626363754272,-0.08831854164600372,[0. 0. 0. 0. 0. 0. 0. 0. 0.],-0.028480594977736477,0.013396891765296461,0.14269575476646423,[0. 0. 0. 0. 0. 0. 0. 0. 0.],-0.16707313060760498,-0.24893081188201904,9.848786354064943,[0. 0. 0. 0. 0. 0. 0. 0. 0.]
7.314142942428589,-0.0018366243457421663,-0.007804563734680415,0.9959391355514526,-0.08967443555593492,[0. 0. 0. 0. 0. 0. 0. 0. 0.],-0.01878887973725796,0.011027604341506958,0.13829247653484347,[0. 0. 0. 0. 0. 0. 0. 0. 0.],-0.06282086670398712,-0.18320679664611816,9.72432041168213,[0. 0. 0. 0. 0. 0. 0. 0. 0.]
7.3341429233551025,-0.0020126495510339737,-0.008078645914793015,0.9958140254020692,-0.09102328866720201,[0. 0. 0. 0. 0. 0. 0. 0. 0.],-0.027856234461069107,0.02263710089027882,0.13813899457454684,[0. 0. 0. 0. 0. 0. 0. 0. 0.],-0.17578953504562378,-0.04161444306373596,9.920870780944826,[0. 0. 0. 0. 0. 0. 0. 0. 0.]
7.354142904281616,-0.0021955627016723156,-0.008364977315068245,0.9956893324851991,-0.09234960377216339,[0. 0. 0. 0. 0. 0. 0. 0. 0.],-0.021174553781747818,0.02592132054269314,0.13558492064476013,[0. 0. 0. 0. 0. 0. 0. 0. 0.],-0.39339518547058105,-0.27422642707824707,9.672769546508789,[0. 0. 0. 0. 0. 0. 0. 0. 0.]
7.37414288520813,-0.0023637665435671806,-0.008601595647633077,0.9955639839172363,-0.09366456419229509,[0. 0. 0. 0. 0. 0. 0. 0. 0.],-0.02057701908051968,0.02025440521538258,0.13264641165733337,[0. 0. 0. 0. 0. 0. 0. 0. 0.],0.4754374623298645,-0.289598286151886,9.739646911621094,[0. 0. 0. 0. 0. 0. 0. 0. 0.]
7.3941428661346436,-0.0025544455274939537,-0.008824262768030167,0.9954380989074707,-0.09496940672397614,[0. 0. 0. 0. 0. 0. 0. 0. 0.],-0.017435850575566295,0.02306327223777771,0.13344959914684298,[0. 0. 0. 0. 0. 0. 0. 0. 0.],-0.01982354372739792,-0.19599576294422152,9.808340072631836,[0. 0. 0. 0. 0. 0. 0. 0. 0.]
7.414142847061157,-0.002752044936642051,-0.009011322632431984,0.9953130483627319,-0.09624733775854112,[0. 0. 0. 0. 0. 0. 0. 0. 0.],-0.02256333827972412,0.021900983527302745,0.13230817019939425,[0. 0. 0. 0. 0. 0. 0. 0. 0.],-0.3380397260189057,-0.2778186798095703,9.824909210205078,[0. 0. 0. 0. 0. 0. 0. 0. 0.]
7.434144020080566,-0.0029438997153192763,-0.009149473160505295,0.9951879382133485,-0.09751515835523607,[0. 0. 0. 0. 0. 0. 0. 0. 0.],-0.011375547386705877,0.025766339153051376,0.127365455031395,[0. 0. 0. 0. 0. 0. 0. 0. 0.],-0.18247978389263156,-0.32592359185218817,9.773257255554201,[0. 0. 0. 0. 0. 0. 0. 0. 0.]
7.45414400100708,-0.003144037211313844,-0.009271944873034956,0.995063304901123,-0.09875922650098802,[0. 0. 0. 0. 0. 0. 0. 0. 0.],-0.010070204734802246,0.020300596952438354,0.12559519708156588,[0. 0. 0. 0. 0. 0. 0. 0. 0.],-0.13863912224769592,-0.047987733036279685,10.013524055480959,[0. 0. 0. 0. 0. 0. 0. 0. 0.]
7.474143981933594,-0.0033279485069215298,-0.009379681199789047,0.994938850402832,-0.09998924285173418,[0. 0. 0. 0. 0. 0. 0. 0. 0.],-0.009842216968536377,0.026688726618885997,0.12698844075202942,[0. 0. 0. 0. 0. 0. 0. 0. 0.],-0.22823442518711093,-0.2587811648845673,9.790685653686523,[0. 0. 0. 0. 0. 0. 0. 0. 0.]
7.494143962860107,-0.0035128192976117134,-0.009464584290981293,0.9948149323463441,-0.1012013852596283,[0. 0. 0. 0. 0. 0. 0. 0. 0.],-0.009429455734789373,0.02224072441458702,0.12418404221534729,[0. 0. 0. 0. 0. 0. 0. 0. 0.],-0.2518765032291413,-0.2632973790168762,9.87935543060303,[0. 0. 0. 0. 0. 0. 0. 0. 0.]
7.514143943786621,-0.0036700512282550335,-0.009533170610666275,0.9946910738945008,-0.10239920020103455,[0. 0. 0. 0. 0. 0. 0. 0. 0.],-0.0017538666725158691,0.0064544384367764005,0.12027248740196228,[0. 0. 0. 0. 0. 0. 0. 0. 0.],0.25078156590461737,-0.38125446438789373,9.828951835632326,[0. 0. 0. 0. 0. 0. 0. 0. 0.]
7.534144878387451,-0.0038456881884485488,-0.009617150761187078,0.9945688247680664,-0.10356489568948747,[0. 0. 0. 0. 0. 0. 0. 0. 0.],-0.0068441033363342285,0.012252479791641235,0.1201145425438881,[0. 0. 0. 0. 0. 0. 0. 0. 0.],-0.6059159636497499,-0.18819335103034973,9.795477867126467,[0. 0. 0. 0. 0. 0. 0. 0. 0.]
7.554144859313965,-0.003996306564658881,-0.00967256911098957,0.9944465160369873,-0.10472273826599121,[0. 0. 0. 0. 0. 0. 0. 0. 0.],-0.012744965963065626,0.021279603242874146,0.11701660603284837,[0. 0. 0. 0. 0. 0. 0. 0. 0.],0.06559336185455322,-0.20797596871852878,9.978482246398928,[0. 0. 0. 0. 0. 0. 0. 0. 0.]
7.5741448402404785,-0.004147144965827465,-0.009774639271199705,0.9943252205848695,-0.10585321485996246,[0. 0. 0. 0. 0. 0. 0. 0. 0.],-0.007206202019006015,0.016721338033676147,0.11464729905128479,[0. 0. 0. 0. 0. 0. 0. 0. 0.],-0.4933355450630188,-0.30101680755615234,9.908602714538576,[0. 0. 0. 0. 0. 0. 0. 0. 0.]
7.594144821166992,-0.004284302238374949,-0.009886999614536764,0.9942033290863037,-0.10697532445192338,[0. 0. 0. 0. 0. 0. 0. 0. 0.],-0.009533763863146307,0.008644908666610718,0.1133851781487465,[0. 0. 0. 0. 0. 0. 0. 0. 0.],-0.0799093320965767,-0.22792580723762512,9.853140830993654,[0. 0. 0. 0. 0. 0. 0. 0. 0.]
7.614144802093506,-0.004433351568877697,-0.010014786384999754,0.9940838813781738,-0.10806320607662201,[0. 0. 0. 0. 0. 0. 0. 0. 0.],-0.012609362602233887,0.022549182176589966,0.11048243194818498,[0. 0. 0. 0. 0. 0. 0. 0. 0.],0.03489944338798523,-0.3876131474971772,10.033143997192383,[0. 0. 0. 0. 0. 0. 0. 0. 0.]
7.6341447830200195,-0.004545389674603939,-0.010190913453698158,0.9939650893211366,-0.10912807285785675,[0. 0. 0. 0. 0. 0. 0. 0. 0.],-0.01566261053085327,0.014654547907412054,0.10725632309913635,[0. 0. 0. 0. 0. 0. 0. 0. 0.],-0.38770008087158203,-0.36632749438285833,9.89248275756836,[0. 0. 0. 0. 0. 0. 0. 0. 0.]
7.654145956039429,-0.004640253260731697,-0.010412190109491348,0.9938476681709291,-0.11016818881034851,[0. 0. 0. 0. 0. 0. 0. 0. 0.],-0.026032328605651855,0.0067658727057278165,0.10551289469003679,[0. 0. 0. 0. 0. 0. 0. 0. 0.],-0.2952765226364136,-0.24964337050914767,9.915903091430664,[0. 0. 0. 0. 0. 0. 0. 0. 0.]
7.674145936965942,-0.004732115659862758,-0.010658187791705132,0.9937317967414857,-0.11118071526288988,[0. 0. 0. 0. 0. 0. 0. 0. 0.],-0.022193791344761852,0.011873990297317505,0.1046799197793007,[0. 0. 0. 0. 0. 0. 0. 0. 0.],-0.4504528045654297,-0.16668994724750522,10.066034317016602,[0. 0. 0. 0. 0. 0. 0. 0. 0.]
7.694145917892456,-0.0048134210519492635,-0.010963228531181814,0.9936175942420961,-0.11216691136360168,[0. 0. 0. 0. 0. 0. 0. 0. 0.],-0.029496850445866588,0.010690837167203428,0.09878501296043396,[0. 0. 0. 0. 0. 0. 0. 0. 0.],-0.23537506163120273,-0.5188189744949341,9.79020881652832,[0. 0. 0. 0. 0. 0. 0. 0. 0.]
7.71414589881897,-0.004888332448899746,-0.011282280087471008,0.9935033321380615,-0.11313891410827637,[0. 0. 0. 0. 0. 0. 0. 0. 0.],-0.03135800734162331,0.008480995893478394,0.09985939413309099,[0. 0. 0. 0. 0. 0. 0. 0. 0.],0.02473953738808632,-0.3429807424545288,9.851882934570312,[0. 0. 0. 0. 0. 0. 0. 0. 0.]
7.734145879745483,-0.004987882450222969,-0.01163532864302397,0.9933898448944092,-0.11409250646829606,[0. 0. 0. 0. 0. 0. 0. 0. 0.],-0.03269464150071145,0.014425070956349373,0.09673014283180237,[0. 0. 0. 0. 0. 0. 0. 0. 0.],-0.15198233723640442,-0.34083831310272217,10.01464366912842,[0. 0. 0. 0. 0. 0. 0. 0. 0.]
7.754145860671997,-0.005069424398243427,-0.012038868851959707,0.9932767748832704,-0.11502684652805328,[0. 0. 0. 0. 0. 0. 0. 0. 0.],-0.04121959581971169,0.010497123003005981,0.09502545744180681,[0. 0. 0. 0. 0. 0. 0. 0. 0.],-0.23710501194000244,-0.513839840888977,9.80190181732178,[0. 0. 0. 0. 0. 0. 0. 0. 0.]
7.774146795272827,-0.005172825418412685,-0.01243632286787033,0.9931631684303285,-0.11595750600099565,[0. 0. 0. 0. 0. 0. 0. 0. 0.],-0.04193336889147759,0.012644383125007154,0.0998668521642685,[0. 0. 0. 0. 0. 0. 0. 0. 0.],-0.1763417571783066,-0.4028935432434082,9.876155853271484,[0. 0. 0. 0. 0. 0. 0. 0. 0.]
7.794146776199341,-0.005271612666547298,-0.012848108075559141,0.9930480122566224,-0.11689013987779619,[0. 0. 0. 0. 0. 0. 0. 0. 0.],-0.037208195775747306,0.014751404523849487,0.09726210683584215,[0. 0. 0. 0. 0. 0. 0. 0. 0.],-0.28599151968956,-0.4049419462680817,9.844541549682617,[0. 0. 0. 0. 0. 0. 0. 0. 0.]
7.8141467571258545,-0.005399098154157401,-0.013263748958706856,0.9929340481758119,-0.11780209839344025,[0. 0. 0. 0. 0. 0. 0. 0. 0.],-0.03649294376373291,0.02060160227119923,0.09387955814599992,[0. 0. 0. 0. 0. 0. 0. 0. 0.],-0.05124154314398766,-0.31785672903060913,9.768239974975586,[0. 0. 0. 0. 0. 0. 0. 0. 0.]
7.834146738052368,-0.005531654227524997,-0.013693188317120077,0.9928191304206849,-0.11871137470006944,[0. 0. 0. 0. 0. 0. 0. 0. 0.],-0.04102588072419167,0.017975270748138428,0.09340346604585649,[0. 0. 0. 0. 0. 0. 0. 0. 0.],0.030727947130799297,-0.39501428604125977,9.71573257446289,[0. 0. 0. 0. 0. 0. 0. 0. 0.]
7.854146718978882,-0.00567830353975296,-0.014111713506281378,0.9927049875259399,-0.11960639804601671,[0. 0. 0. 0. 0. 0. 0. 0. 0.],-0.04328489303588867,0.019387155771255493,0.09420291334390642,[0. 0. 0. 0. 0. 0. 0. 0. 0.],0.02220912463963032,-0.6640604734420776,9.802581787109375,[0. 0. 0. 0. 0. 0. 0. 0. 0.]
7.8741466999053955,-0.005831228103488685,-0.014488278888165953,0.9925921559333802,-0.12048791348934174,[0. 0. 0. 0. 0. 0. 0. 0. 0.],-0.028383737429976467,0.01782253384590149,0.09112731367349626,[0. 0. 0. 0. 0. 0. 0. 0. 0.],0.009605483151972296,-0.3970690071582795,9.806128501892092,[0. 0. 0. 0. 0. 0. 0. 0. 0.]
7.894147872924805,-0.006013188511133194,-0.014850986190140249,0.9924787282943726,-0.12136396020650865,[0. 0. 0. 0. 0. 0. 0. 0. 0.],-0.02631545066833496,0.02312734536826611,0.08772536367177965,[0. 0. 0. 0. 0. 0. 0. 0. 0.],0.028387460857629776,-0.4246457815170288,9.665773391723633,[0. 0. 0. 0. 0. 0. 0. 0. 0.]
7.914147853851318,-0.006188830826431514,-0.015178943984210493,0.9923679828643799,-0.12221945822238922,[0. 0. 0. 0. 0. 0. 0. 0. 0.],-0.03405660390853882,0.018612297251820568,0.0878937691450119,[0. 0. 0. 0. 0. 0. 0. 0. 0.],-0.13839998841285706,-0.3995639681816101,9.857066154479982,[0. 0. 0. 0. 0. 0. 0. 0. 0.]
7.934147834777832,-0.006339327432215214,-0.01546548493206501,0.9922610521316528,-0.12304080277681352,[0. 0. 0. 0. 0. 0. 0. 0. 0.],-0.01723170280456543,0.02017691731452942,0.0834845080971718,[0. 0. 0. 0. 0. 0. 0. 0. 0.],-0.09506426751613617,-0.5320021510124208,9.750387191772461,[0. 0. 0. 0. 0. 0. 0. 0. 0.]
7.954148769378662,-0.006458151619881392,-0.01570673100650311,0.9921586513519287,-0.12382661551237108,[0. 0. 0. 0. 0. 0. 0. 0. 0.],-0.023121822625398636,0.012794234789907934,0.07842101156711578,[0. 0. 0. 0. 0. 0. 0. 0. 0.],-0.15538421273231506,-0.5956699848175049,9.677386283874513,[0. 0. 0. 0. 0. 0. 0. 0. 0.]
7.974148750305176,-0.0065599000081419945,-0.01588760130107403,0.9920616149902344,-0.12457288056612016,[0. 0. 0. 0. 0. 0. 0. 0. 0.],-0.014227629639208319,0.01297667808830738,0.07623806595802307,[0. 0. 0. 0. 0. 0. 0. 0. 0.],0.20264603197574618,-0.3985195755958557,9.718671798706055,[0. 0. 0. 0. 0. 0. 0. 0. 0.]
7.9941487312316895,-0.00661392230540514,-0.016036080196499828,0.9919688701629639,-0.1252869963645935,[0. 0. 0. 0. 0. 0. 0. 0. 0.],-0.012004376389086248,0.003621727228164673,0.07565096765756608,[0. 0. 0. 0. 0. 0. 0. 0. 0.],-0.20926086604595187,-0.5478519201278687,9.72018814086914,[0. 0. 0. 0. 0. 0. 0. 0. 0.]
8.014148712158203,-0.00662171794101596,-0.016123950481414795,0.9918849468231201,-0.12593828141689303,[0. 0. 0. 0. 0. 0. 0. 0. 0.],-0.006543099880218506,-0.0039130449295043945,0.06585196405649187,[0. 0. 0. 0. 0. 0. 0. 0. 0.],-0.2164134681224823,-0.44189006090164185,9.778113365173342,[0. 0. 0. 0. 0. 0. 0. 0. 0.]
8.034148693084717,-0.006574084982275963,-0.016143083572387695,0.9918063282966615,-0.12655583024024963,[0. 0. 0. 0. 0. 0. 0. 0. 0.],0.0022493298165500164,-0.008775292895734312,0.06244257092475891,[0. 0. 0. 0. 0. 0. 0. 0. 0.],-0.08751185238361359,-0.5413558483123779,9.815530776977539,[0. 0. 0. 0. 0. 0. 0. 0. 0.]
8.054139614105225,-0.00646809209138155,-0.016084337607026104,0.9917335510253906,-0.1271384358406067,[0. 0. 0. 0. 0. 0. 0. 0. 0.],0.009204448200762274,-0.01071244664490223,0.05863756686449051,[0. 0. 0. 0. 0. 0. 0. 0. 0.],-0.2119555324316025,-0.49872967600822454,9.799117088317873,[0. 0. 0. 0. 0. 0. 0. 0. 0.]
8.074140787124634,-0.006317541003227234,-0.01597314327955246,0.9916673898696899,-0.1276753544807434,[0. 0. 0. 0. 0. 0. 0. 0. 0.],0.011471661739051344,-0.018961727619171143,0.0542469434440136,[0. 0. 0. 0. 0. 0. 0. 0. 0.],-0.20016410946846008,-0.5241886973381044,9.803391456604006,[0. 0. 0. 0. 0. 0. 0. 0. 0.]
8.094140768051147,-0.006113851908594371,-0.015786575153470043,0.9916062951087953,-0.12818142771720886,[0. 0. 0. 0. 0. 0. 0. 0. 0.],0.016511231660842896,-0.0225067138671875,0.04994795098900796,[0. 0. 0. 0. 0. 0. 0. 0. 0.],-0.2132520079612732,-0.5091866850852967,9.843429565429688,[0. 0. 0. 0. 0. 0. 0. 0. 0.]
8.114140748977661,-0.005839357618242503,-0.015535606071352959,0.9915521144866943,-0.1286449134349823,[0. 0. 0. 0. 0. 0. 0. 0. 0.],0.01911595650017262,-0.03164708614349365,0.04660413041710854,[0. 0. 0. 0. 0. 0. 0. 0. 0.],-0.22213029861450195,-0.49894353747367864,9.829706192016602,[0. 0. 0. 0. 0. 0. 0. 0. 0.]
8.134140729904175,-0.0055233058519661435,-0.015233699232339859,0.9915015101432801,-0.12908451259136203,[0. 0. 0. 0. 0. 0. 0. 0. 0.],0.03021135926246643,-0.036686662584543235,0.04821493849158288,[0. 0. 0. 0. 0. 0. 0. 0. 0.],-0.19688275456428528,-0.5174853205680848,9.815415382385256,[0. 0. 0. 0. 0. 0. 0. 0. 0.]
8.154140710830688,-0.0051423292607069016,-0.014889346435666084,0.9914563298225404,-0.12948633730411532,[0. 0. 0. 0. 0. 0. 0. 0. 0.],0.03019795008003712,-0.03941952437162399,0.043290112167596824,[0. 0. 0. 0. 0. 0. 0. 0. 0.],-0.23511788249015808,-0.4745442867279053,9.821712493896484,[0. 0. 0. 0. 0. 0. 0. 0. 0.]
8.174140691757202,-0.004723701160401107,-0.014504139311611654,0.9914143085479736,-0.12986768782138827,[0. 0. 0. 0. 0. 0. 0. 0. 0.],0.03276243433356286,-0.04734545573592187,0.04066302627325058,[0. 0. 0. 0. 0. 0. 0. 0. 0.],-0.20278121531009677,-0.4684306681156159,9.817210197448732,[0. 0. 0. 0. 0. 0. 0. 0. 0.]
8.194141626358032,-0.004230052698403598,-0.014079704880714417,0.9913758635520936,-0.13022305071353915,[0. 0. 0. 0. 0. 0. 0. 0. 0.],0.03844276443123818,-0.05950033664703369,0.03421828523278237,[0. 0. 0. 0. 0. 0. 0. 0. 0.],-0.218448743224144,-0.45806518197059637,9.81576919555664,[0. 0. 0. 0. 0. 0. 0. 0. 0.]
8.214141607284546,-0.0037006251513957977,-0.013632566668093206,0.991340458393097,-0.1305567175149918,[0. 0. 0. 0. 0. 0. 0. 0. 0.],0.03971085324883462,-0.059370703995227814,0.032154470682144165,[0. 0. 0. 0. 0. 0. 0. 0. 0.],-0.1637595295906067,-0.45928144454956055,9.794853210449219,[0. 0. 0. 0. 0. 0. 0. 0. 0.]
8.23414158821106,-0.0031450982205569744,-0.013170076534152031,0.9913066625595093,-0.13087394833564758,[0. 0. 0. 0. 0. 0. 0. 0. 0.],0.041689727455377586,-0.05912184715270996,0.03456101194024087,[0. 0. 0. 0. 0. 0. 0. 0. 0.],-0.17389941215515137,-0.437630444765091,9.794282913208008,[0. 0. 0. 0. 0. 0. 0. 0. 0.]
8.254141807556152,-0.002550517674535513,-0.012698396109044554,0.991273581981659,-0.1311841905117035,[0. 0. 0. 0. 0. 0. 0. 0. 0.],0.040335211902856834,-0.06347597390413286,0.03246888518333435,[0. 0. 0. 0. 0. 0. 0. 0. 0.],-0.17887042462825778,-0.4327778220176697,9.781670570373537,[0. 0. 0. 0. 0. 0. 0. 0. 0.]
8.274141788482666,-0.0019261041888967159,-0.01221688184887171,0.9912428855895996,-0.13147233426570895,[0. 0. 0. 0. 0. 0. 0. 0. 0.],0.038925562053918845,-0.0688701868057251,0.032762441784143455,[0. 0. 0. 0. 0. 0. 0. 0. 0.],-0.14251820743083957,-0.4010565578937531,9.79463291168213,[0. 0. 0. 0. 0. 0. 0. 0. 0.]
8.29414176940918,-0.0012957800645381212,-0.01172767858952284,0.9912139773368837,-0.13174086809158325,[0. 0. 0. 0. 0. 0. 0. 0. 0.],0.039844963699579246,-0.07121413946151733,0.029813498258590698,[0. 0. 0. 0. 0. 0. 0. 0. 0.],-0.14923271536827087,-0.38883012533187866,9.76838493347168,[0. 0. 0. 0. 0. 0. 0. 0. 0.]
8.31414270401001,-0.0006619155174121261,-0.011263432912528517,0.9911827445030214,-0.13202205300331116,[0. 0. 0. 0. 0. 0. 0. 0. 0.],0.036536905914545066,-0.06836801767349243,0.029564650729298595,[0. 0. 0. 0. 0. 0. 0. 0. 0.],-0.10949265956878662,-0.41256764531135565,9.740027427673342,[0. 0. 0. 0. 0. 0. 0. 0. 0.]
8.334142684936523,-2.350725299038459e-05,-0.010807206854224205,0.9911489486694336,-0.13231533765792847,[0. 0. 0. 0. 0. 0. 0. 0. 0.],0.03749653697013855,-0.06803125143051147,0.03016665764153004,[0. 0. 0. 0. 0. 0. 0. 0. 0.],-0.12788379192352295,-0.39134836196899414,9.729253768920898,[0. 0. 0. 0. 0. 0. 0. 0. 0.]
8.354142665863037,0.0006084917695261539,-0.010394204407930374,0.9911134243011475,-0.1326126754283905,[0. 0. 0. 0. 0. 0. 0. 0. 0.],0.030205400660634044,-0.060777366161346436,0.03393963351845742,[0. 0. 0. 0. 0. 0. 0. 0. 0.],-0.09585370123386383,-0.38072738051414495,9.722394943237305,[0. 0. 0. 0. 0. 0. 0. 0. 0.]
8.37414264678955,0.0012362446868792178,-0.010000945068895819,0.9910771250724794,-0.1329089105129242,[0. 0. 0. 0. 0. 0. 0. 0. 0.],0.026436896994709972,-0.06360559165477753,0.031238049268722534,[0. 0. 0. 0. 0. 0. 0. 0. 0.],-0.05677323043346405,-0.35283163189888006,9.733065605163576,[0. 0. 0. 0. 0. 0. 0. 0. 0.]
8.394142627716064,0.00184835703112185,-0.009643617086112501,0.9910377264022827,-0.1332218050956726,[0. 0. 0. 0. 0. 0. 0. 0. 0.],0.02889261022210121,-0.05993695184588433,0.033783167600631714,[0. 0. 0. 0. 0. 0. 0. 0. 0.],-0.07143259048461914,-0.3490513563156128,9.727848052978516,[0. 0. 0. 0. 0. 0. 0. 0. 0.]
8.414142608642578,0.002422325545921922,-0.009333796799182892,0.9909974336624146,-0.1335335373878479,[0. 0. 0. 0. 0. 0. 0. 0. 0.],0.023283809423446655,-0.058420002460479736,0.035785887390375144,[0. 0. 0. 0. 0. 0. 0. 0. 0.],-0.02989055961370468,-0.35310083627700806,9.733488082885742,[0. 0. 0. 0. 0. 0. 0. 0. 0.]
8.434143543243408,0.002966437954455614,-0.009078952483832838,0.990956485271454,-0.13384467363357544,[0. 0. 0. 0. 0. 0. 0. 0. 0.],0.017426159232854843,-0.055250529199838645,0.033351026475429535,[0. 0. 0. 0. 0. 0. 0. 0. 0.],-0.011940840631723404,-0.3434462249279023,9.729401588439943,[0. 0. 0. 0. 0. 0. 0. 0. 0.]
8.454143524169922,0.003508498659357429,-0.008846951648592949,0.990912914276123,-0.13416796922683716,[0. 0. 0. 0. 0. 0. 0. 0. 0.],0.013975054025650024,-0.05623102560639382,0.032765422016382224,[0. 0. 0. 0. 0. 0. 0. 0. 0.],-0.003785202745348215,-0.34107485413551336,9.736621856689453,[0. 0. 0. 0. 0. 0. 0. 0. 0.]
8.474143505096436,0.003993017133325339,-0.008696892298758032,0.9908664226531982,-0.13450759649276733,[0. 0. 0. 0. 0. 0. 0. 0. 0.],0.00743791600689292,-0.04349350929260254,0.03753678128123284,[0. 0. 0. 0. 0. 0. 0. 0. 0.],0.040893148630857475,-0.34884306788444525,9.769775390625,[0. 0. 0. 0. 0. 0. 0. 0. 0.]
8.494143724441528,0.0044424813240766525,-0.008574976585805418,0.9908186197280884,-0.13485367596149447,[0. 0. 0. 0. 0. 0. 0. 0. 0.],0.003547966713085771,-0.04357993975281716,0.04019439220428467,[0. 0. 0. 0. 0. 0. 0. 0. 0.],-0.03118911385536194,-0.38807976245880127,9.731394767761232,[0. 0. 0. 0. 0. 0. 0. 0. 0.]
8.514143705368042,0.004838180262595416,-0.008526794612407684,0.9907670021057129,-0.1352216899394989,[0. 0. 0. 0. 0. 0. 0. 0. 0.],-0.0007718802080489696,-0.03288388252258301,0.039082024246454246,[0. 0. 0. 0. 0. 0. 0. 0. 0.],0.07147004455327989,-0.2689143121242524,9.794610977172852,[0. 0. 0. 0. 0. 0. 0. 0. 0.]
8.534144639968872,0.005181728396564723,-0.008502424694597723,0.9907137155532837,-0.13559958338737488,[0. 0. 0. 0. 0. 0. 0. 0. 0.],-0.005304813850671054,-0.024650990962982178,0.043564289808273315,[0. 0. 0. 0. 0. 0. 0. 0. 0.],0.01760121621191502,-0.3907791674137116,9.684652328491211,[0. 0. 0. 0. 0. 0. 0. 0. 0.]
8.554144620895386,0.0054712588898837575,-0.008511437103152275,0.9906594753265381,-0.13598239421844482,[0. 0. 0. 0. 0. 0. 0. 0. 0.],-0.005519390106201172,-0.01968592591583729,0.0397510826587677,[0. 0. 0. 0. 0. 0. 0. 0. 0.],0.12229358404874803,-0.21784764528274536,9.820881843566896,[0. 0. 0. 0. 0. 0. 0. 0. 0.]
8.5741446018219,0.005706644151359797,-0.008556245826184751,0.9906026124954224,-0.1363862156867981,[0. 0. 0. 0. 0. 0. 0. 0. 0.],-0.001907348749227822,-0.01529753487557173,0.04516616463661194,[0. 0. 0. 0. 0. 0. 0. 0. 0.],-0.058676011860370636,-0.3726406395435334,9.79659652709961,[0. 0. 0. 0. 0. 0. 0. 0. 0.]
8.594144582748413,0.005847022868692875,-0.008624570444226265,0.9905437231063843,-0.13680297136306763,[0. 0. 0. 0. 0. 0. 0. 0. 0.],-0.01043826434761286,-0.008825957775115967,0.043765459209680564,[0. 0. 0. 0. 0. 0. 0. 0. 0.],0.139910563826561,-0.3876530826091767,9.781418800354006,[0. 0. 0. 0. 0. 0. 0. 0. 0.]
8.614144563674927,0.005906159058213234,-0.008688981644809248,0.9904820322990419,-0.1372417062520981,[0. 0. 0. 0. 0. 0. 0. 0. 0.],-0.006006658542901278,0.0010304152965545654,0.04946663975715637,[0. 0. 0. 0. 0. 0. 0. 0. 0.],0.11885584890842438,-0.145813062787056,9.88511848449707,[0. 0. 0. 0. 0. 0. 0. 0. 0.]
8.63414454460144,0.005896701011806727,-0.008796979673206808,0.990418553352356,-0.13769303262233737,[0. 0. 0. 0. 0. 0. 0. 0. 0.],-0.015579164959490301,0.007390230894088745,0.047696385532617576,[0. 0. 0. 0. 0. 0. 0. 0. 0.],0.0910037085413933,-0.282895714044571,9.825244903564453,[0. 0. 0. 0. 0. 0. 0. 0. 0.]
8.65414547920227,0.005782619584351779,-0.008902767673134804,0.9903530478477479,-0.13816092908382419,[0. 0. 0. 0. 0. 0. 0. 0. 0.],-0.010782480239868164,0.011292846873402596,0.05231426283717156,[0. 0. 0. 0. 0. 0. 0. 0. 0.],0.08243764191865922,-0.30959951877593994,9.810561180114748,[0. 0. 0. 0. 0. 0. 0. 0. 0.]
8.674145460128784,0.0055866227485239514,-0.009007842279970648,0.9902860522270204,-0.13864235579967502,[0. 0. 0. 0. 0. 0. 0. 0. 0.],-0.009092689491808416,0.02769753709435463,0.05224124714732171,[0. 0. 0. 0. 0. 0. 0. 0. 0.],0.010277579538524153,-0.22658053040504456,9.877272605895998,[0. 0. 0. 0. 0. 0. 0. 0. 0.]
8.694145441055298,0.005295358132570983,-0.009098857641220093,0.9902164936065674,-0.13914352655410767,[0. 0. 0. 0. 0. 0. 0. 0. 0.],-0.0003293156623840332,0.03555342927575112,0.057093065232038505,[0. 0. 0. 0. 0. 0. 0. 0. 0.],0.0643443986773491,-0.30292809009552,9.760290145874023,[0. 0. 0. 0. 0. 0. 0. 0. 0.]
8.714145421981812,0.004938011988997459,-0.009176356717944145,0.9901461005210878,-0.13965144753456116,[0. 0. 0. 0. 0. 0. 0. 0. 0.],0.005816668272018433,0.04529282823204995,0.054442137479782104,[0. 0. 0. 0. 0. 0. 0. 0. 0.],0.2867734432220459,-0.19635292887687683,9.839117050170898,[0. 0. 0. 0. 0. 0. 0. 0. 0.]
8.734145641326904,0.004485072102397681,-0.009258828125894071,0.9900774359703065,-0.1401467472314835,[0. 0. 0. 0. 0. 0. 0. 0. 0.],-0.006060301326215267,0.05497857928276062,0.05436018481850625,[0. 0. 0. 0. 0. 0. 0. 0. 0.],-0.0035198088735342026,-0.362568348646164,9.811967849731445,[0. 0. 0. 0. 0. 0. 0. 0. 0.]
8.754145622253418,0.003960499074310065,-0.009321453049778938,0.9900084733963013,-0.14064496755599976,[0. 0. 0. 0. 0. 0. 0. 0. 0.],0.008580833673477173,0.05503371730446816,0.053795427083969116,[0. 0. 0. 0. 0. 0. 0. 0. 0.],0.13596813380718234,-0.334211677312851,9.911658287048342,[0. 0. 0. 0. 0. 0. 0. 0. 0.]
8.774146556854248,0.003347556339576841,-0.009365151636302473,0.9899388551712036,-0.14114752411842346,[0. 0. 0. 0. 0. 0. 0. 0. 0.],0.009606033563613892,0.07120295614004137,0.055772814899683006,[0. 0. 0. 0. 0. 0. 0. 0. 0.],0.05386419221758843,-0.2263167351484299,9.837428092956545,[0. 0. 0. 0. 0. 0. 0. 0. 0.]
8.794146537780762,0.0026527331210672855,-0.009378920309245588,0.9898720979690552,-0.141627699136734,[0. 0. 0. 0. 0. 0. 0. 0. 0.],0.0096224257722497,0.07030442357063293,0.051357600837945945,[0. 0. 0. 0. 0. 0. 0. 0. 0.],0.06619855016469957,-0.23153652250766757,9.927362442016602,[0. 0. 0. 0. 0. 0. 0. 0. 0.]
8.814146518707275,0.0019013903802260759,-0.009386551566421987,0.9898089766502381,-0.14207859337329867,[0. 0. 0. 0. 0. 0. 0. 0. 0.],0.014493616297841072,0.0742591917514801,0.04744753614068032,[0. 0. 0. 0. 0. 0. 0. 0. 0.],0.06172209233045578,-0.36910554766654974,9.805371284484865,[0. 0. 0. 0. 0. 0. 0. 0. 0.]
8.834146499633789,0.0010932923760265112,-0.009382269345223905,0.9897494316101074,-0.14250297844409945,[0. 0. 0. 0. 0. 0. 0. 0. 0.],0.007524341344833374,0.08348747342824937,0.048162780702114105,[0. 0. 0. 0. 0. 0. 0. 0. 0.],0.11212641745805742,-0.2991642951965332,9.774094581604006,[0. 0. 0. 0. 0. 0. 0. 0. 0.]
8.854146480560303,0.00023934253840707242,-0.009356359019875526,0.989693284034729,-0.14289797842502597,[0. 0. 0. 0. 0. 0. 0. 0. 0.],0.01419410388916731,0.08196011185646057,0.04223361611366272,[0. 0. 0. 0. 0. 0. 0. 0. 0.],0.02487313747406006,-0.24357922375202182,9.851541519165039,[0. 0. 0. 0. 0. 0. 0. 0. 0.]
8.874146461486816,-0.0006281543173827232,-0.009301954880356789,0.9896421432495117,-0.14325523376464844,[0. 0. 0. 0. 0. 0. 0. 0. 0.],0.0138111412525177,0.08316413313150407,0.0396139919757843,[0. 0. 0. 0. 0. 0. 0. 0. 0.],-0.05584216117858887,-0.22646065056324008,9.890433311462404,[0. 0. 0. 0. 0. 0. 0. 0. 0.]
8.894147396087646,-0.0015291521558538081,-0.00927924830466509,0.9895951747894287,-0.14357393980026245,[0. 0. 0. 0. 0. 0. 0. 0. 0.],0.01682713814079762,0.0905953422188759,0.037110596895217896,[0. 0. 0. 0. 0. 0. 0. 0. 0.],-0.06306276470422746,-0.25225374102592474,9.901639938354492,[0. 0. 0. 0. 0. 0. 0. 0. 0.]
8.91414737701416,-0.0024398434907197952,-0.009220535866916181,0.9895531535148622,-0.14385342597961426,[0. 0. 0. 0. 0. 0. 0. 0. 0.],0.025393813848495483,0.09272471815347673,0.0326104462146759,[0. 0. 0. 0. 0. 0. 0. 0. 0.],-0.08087657392024994,-0.17109552025794983,9.937684059143068,[0. 0. 0. 0. 0. 0. 0. 0. 0.]
8.934147357940674,-0.0033245722297579054,-0.00915982760488987,0.9895160794258119,-0.1440953463315964,[0. 0. 0. 0. 0. 0. 0. 0. 0.],0.017561763525009155,0.09376332908868791,0.027913602069020275,[0. 0. 0. 0. 0. 0. 0. 0. 0.],-0.07929223030805589,-0.22014574706554416,9.877339363098146,[0. 0. 0. 0. 0. 0. 0. 0. 0.]
8.954147338867188,-0.004189712461084128,-0.009104342199862005,0.9894832372665405,-0.14430126547813416,[0. 0. 0. 0. 0. 0. 0. 0. 0.],0.02009198255836964,0.08063390851020813,0.024458026513457302,[0. 0. 0. 0. 0. 0. 0. 0. 0.],-0.09493663907051086,-0.4398614764213562,9.793189048767092,[0. 0. 0. 0. 0. 0. 0. 0. 0.]
8.97414755821228,-0.005018826574087143,-0.009030708111822607,0.9894527196884155,-0.14448888599872592,[0. 0. 0. 0. 0. 0. 0. 0. 0.],0.02012029476463795,0.07699058204889299,0.022063400596380234,[0. 0. 0. 0. 0. 0. 0. 0. 0.],-0.044229496270418174,-0.12283412367105485,9.889052391052248,[0. 0. 0. 0. 0. 0. 0. 0. 0.]
8.994147539138794,-0.005803624633699656,-0.008993816561996939,0.9894243478775024,-0.14465494453907016,[0. 0. 0. 0. 0. 0. 0. 0. 0.],0.012487175874412062,0.07530748844146729,0.02248734422028065,[0. 0. 0. 0. 0. 0. 0. 0. 0.],-0.3027493357658386,-0.13762402534484863,9.865374565124513,[0. 0. 0. 0. 0. 0. 0. 0. 0.]
9.014147520065308,-0.006516127847135067,-0.00895451195538044,0.9893999099731445,-0.14479362964630127,[0. 0. 0. 0. 0. 0. 0. 0. 0.],0.014546513557434082,0.06930232793092729,0.017870964482426647,[0. 0. 0. 0. 0. 0. 0. 0. 0.],-0.13813219964504245,-0.15818496048450473,9.823709487915039,[0. 0. 0. 0. 0. 0. 0. 0. 0.]
9.034147500991821,-0.007149665616452694,-0.008917691186070442,0.989379107952118,-0.14490941166877747,[0. 0. 0. 0. 0. 0. 0. 0. 0.],0.012250991538167,0.060967367142438895,0.015657395124435425,[0. 0. 0. 0. 0. 0. 0. 0. 0.],-0.24769534170627597,-0.13892559707164767,9.833899497985842,[0. 0. 0. 0. 0. 0. 0. 0. 0.]
9.054139375686646,-0.007692164275795222,-0.008891673758625984,0.9893603920936586,-0.1450110673904419,[0. 0. 0. 0. 0. 0. 0. 0. 0.],0.013171881437301636,0.05109831690788269,0.01652762480080128,[0. 0. 0. 0. 0. 0. 0. 0. 0.],-0.08330080658197404,-0.18141993880271912,9.812254905700685,[0. 0. 0. 0. 0. 0. 0. 0. 0.]
